accel_x (m/s^2),accel_y (m/s^2),accel_z (m/s^2)
4.989715701279259932e-06,7.895972950789770500e-04,9.793587769197474202e+00
-5.158951241746498307e-06,7.792426591990645607e-04,9.793581513934785931e+00
-2.056408397352766972e-06,7.840927895944022454e-04,9.793594530331219516e+00
7.971215831467614229e-06,7.818483131321474081e-04,9.793589604266033533e+00
2.070926020847886642e-06,7.839163695084593736e-04,9.793586328576902034e+00
-1.598756623108324644e-06,7.849546145492208990e-04,9.793591435334001005e+00
-1.219221171064201439e-06,7.760506575031785557e-04,9.793585369129480966e+00
2.585344102333982277e-06,7.766226719947601090e-04,9.793593294066084809e+00
6.429903536934261419e-06,7.741142541038577556e-04,9.793586231881757698e+00
3.401724088958467016e-06,7.767423674846072766e-04,9.793589634776516561e+00
-6.296597808685490719e-06,7.843584152565844089e-04,9.793583640657958611e+00
-9.765630669781171386e-06,7.805365980250049190e-04,9.793588867172896784e+00
-2.319010007287846925e-06,7.777955620597900568e-04,9.793581375692953728e+00
5.051619547284309909e-06,7.812567664397048091e-04,9.793589873051594452e+00
3.601055705011523318e-06,7.786341440537662565e-04,9.793586578114885199e+00
-4.373897682701099778e-06,7.815033414212296282e-04,9.793587202746392606e+00
-1.460150019820432802e-06,7.834466650598763448e-04,9.793585298937635741e+00
5.280918053319116136e-06,7.798452897387116861e-04,9.793592629975893971e+00
-2.995769175880652813e-06,7.754215602676152756e-04,9.793581934752907614e+00
2.778346411901185085e-06,7.824121386230652999e-04,9.793592502696316870e+00
-4.372134293438622271e-06,7.806680196230961037e-04,9.793594526480234208e+00
5.435174783037367464e-07,7.755243441240444562e-04,9.793582378782343056e+00
-2.111597213614259172e-06,7.800926962077740735e-04,9.793594769762346885e+00
-5.817851573111493473e-06,7.847779860558330798e-04,9.793592097751925962e+00
-6.201622498107163780e-07,7.785925682647986497e-04,9.793595108214773859e+00
-3.027885709032763647e-06,7.848570728581602844e-04,9.793588656634398149e+00
-3.057646162225041527e-06,7.779869365545664722e-04,9.793590427480440397e+00
1.449428569388019043e-06,7.768738161689988948e-04,9.793589193652110225e+00
7.226521187006565417e-06,7.859615390878948267e-04,9.793588878574988499e+00
6.010982955646711166e-06,7.881017659781517108e-04,9.793586662348698013e+00
-5.531728138733777990e-07,7.807541414762790826e-04,9.793590310759116235e+00
-2.298685263482869469e-06,7.847508733377510414e-04,9.793589625670298560e+00
-2.390714007526840863e-06,7.883693313292578940e-04,9.793583289734074881e+00
-2.737600954422047423e-06,7.747003870830103042e-04,9.793590211381888011e+00
1.227121728577429468e-06,7.827379553403150322e-04,9.793584273096541892e+00
1.521573927582222221e-06,7.801846793963588969e-04,9.793587251375976521e+00
-2.604330458549351630e-06,7.847244448973575513e-04,9.793591448138752042e+00
-2.433084310621115804e-06,7.816077392611240227e-04,9.793589124544041624e+00
-1.795066361349081151e-06,7.834420936121436153e-04,9.793590400624989201e+00
1.895531032326000342e-06,7.837966483546672785e-04,9.793596202241650062e+00
3.801215484111336946e-06,7.839420930938579635e-04,9.793589476018487616e+00
-6.744529566768937639e-07,7.809076513940545368e-04,9.793592935130284616e+00
7.617698147922156387e-06,7.900027739321500726e-04,9.793587401782373192e+00
-3.578821358033500276e-06,7.881097783714513310e-04,9.793596780556772075e+00
4.872860991114393515e-06,7.715216587883319934e-04,9.793587037013326224e+00
3.876114630445014128e-06,7.817939012670452889e-04,9.793590441117185463e+00
1.789240911794827576e-06,7.896767971842850618e-04,9.793589917506714926e+00
1.172342143408516736e-05,7.868907931816585336e-04,9.793593576710479809e+00
-1.119609918839696396e-06,7.867802704164909020e-04,9.793587053084307215e+00
3.004923376677545368e-06,7.773754564773830908e-04,9.793591134006991439e+00
3.153109857050831301e-06,7.808144253008644136e-04,9.793581693979163560e+00
7.594605554799395095e-07,7.843382208770590313e-04,9.793592175215604101e+00
-5.267359091499859371e-08,7.792384910314208418e-04,9.793591391839212790e+00
5.567668804687602700e-06,7.813657288394254552e-04,9.793586176702369528e+00
5.213909377938380146e-06,7.801826467709467279e-04,9.793588429988554722e+00
1.862776046792941117e-06,7.872311382545498426e-04,9.793581138596319846e+00
6.588624406772527639e-06,7.794344517587668613e-04,9.793589568085247166e+00
-2.819604318061880272e-06,7.859104837650802023e-04,9.793594597902371746e+00
-7.420979196181692059e-06,7.787337383307549191e-04,9.793592028290746043e+00
8.084531753665242463e-06,7.852504685568143655e-04,9.793588950571882279e+00
-8.569978571130537715e-07,7.782509837259184030e-04,9.793601461522207785e+00
-9.272413656838807549e-07,7.737247926696166249e-04,9.793584747762734466e+00
4.906878773372533089e-06,7.875427087244759325e-04,9.793592856494298005e+00
-2.525670323600978178e-06,7.820811802829038487e-04,9.793581980748092164e+00
4.993384372191109242e-07,7.844101924321347135e-04,9.793585588185347746e+00
-7.974593778948067819e-07,7.819554416553836824e-04,9.793591429915016633e+00
2.686154049755307192e-06,7.859287442556471028e-04,9.793594277376236334e+00
3.719702131039789310e-06,7.927788913323410023e-04,9.793586598944827415e+00
-3.233290417643260001e-06,7.863304566143243827e-04,9.793592709166492938e+00
3.364609695335644914e-06,7.879599957446498971e-04,9.793588268037284550e+00
2.398059534858502116e-06,7.811595438353631559e-04,9.793590378526909390e+00
-1.550173923560525912e-06,7.879610970437491216e-04,9.793593777576994341e+00
1.606025993767047956e-06,7.786182049334676751e-04,9.793592574127874428e+00
1.463650559878694162e-06,7.838174772527917774e-04,9.793592126231601469e+00
1.016493589249960708e-07,7.786970897506645438e-04,9.793584134719843348e+00
-4.622971028025864125e-06,7.818218544034254321e-04,9.793587281761210406e+00
8.055049607035956991e-07,7.796774782270010726e-04,9.793593703378792981e+00
2.153176630041052424e-06,7.941122048361807075e-04,9.793587122429258329e+00
-6.477952797093553349e-06,7.867904368064391031e-04,9.793597216457408550e+00
-6.009893621897352730e-07,7.856992393542303922e-04,9.793585879010249684e+00
4.841571588635384195e-06,7.814153007198401278e-04,9.793590470903339451e+00
-4.750186746318815421e-06,7.860377494076079734e-04,9.793584970702058357e+00
-5.548261973429058514e-06,7.850143381029459251e-04,9.793595050649878786e+00
-7.114200993750580571e-06,7.824348486502624061e-04,9.793589730759819645e+00
-2.441500294093107396e-06,7.827129350469946628e-04,9.793585680879488109e+00
-5.805592250548189980e-06,7.809667500859473642e-04,9.793590011183338717e+00
2.726053159257371867e-07,7.782430707881029955e-04,9.793582091684493562e+00
9.524948799222976923e-07,7.814551802403170476e-04,9.793592641117141895e+00
-5.236355762658325651e-06,7.866093676028854858e-04,9.793583297112723685e+00
2.305424997328370032e-06,7.803195528464194897e-04,9.793589763531739933e+00
1.439183123802138507e-06,7.793058996915885840e-04,9.793591604275135865e+00
5.043671335158039808e-06,7.734621236085585444e-04,9.793591342523090049e+00
4.501918393681038374e-06,7.781599171067535509e-04,9.793593047866094636e+00
1.119079583389978372e-06,7.837970035913557594e-04,9.793595359861532401e+00
2.213071062908634574e-06,7.693517591865063447e-04,9.793593548879632849e+00
-7.345986223244086256e-06,7.963043183336414137e-04,9.793588842700959418e+00
2.722636935113730934e-06,7.803940076463780065e-04,9.793588684896192831e+00
6.160575560540358958e-06,7.814494014524871711e-04,9.793586535519368752e+00
-3.962506098450251015e-06,7.889522680933431977e-04,9.793591984543917661e+00
2.483218660708161611e-06,7.820708661792334258e-04,9.793585513995365588e+00
-3.111815256065870653e-07,7.751467141645122447e-04,9.793592977428852819e+00
5.532809357866033326e-06,7.782225627962917379e-04,9.793594680823568766e+00
-1.524942388483513963e-06,7.854758629948021360e-04,9.793588123680290636e+00
9.250517293337881164e-06,7.755809638227625924e-04,9.793589948456011385e+00
-5.600600698075546016e-06,7.830317374688700472e-04,9.793594850862154644e+00
-3.914804920645967061e-06,7.802691961968429447e-04,9.793595405210432148e+00
3.936572601359731250e-06,7.840046209259769056e-04,9.793588163615309483e+00
6.164228035592933592e-06,7.873224181040035892e-04,9.793585696583964051e+00
-6.713582950561995946e-06,7.856641159685713799e-04,9.793591843008840669e+00
1.123509665051025194e-06,7.782301047232980480e-04,9.793584071630109023e+00
6.082152619474790073e-06,7.900078948343386941e-04,9.793589935242653866e+00
6.653481005399967619e-06,7.865615093905020758e-04,9.793590926308480604e+00
1.016404823669974627e-06,7.839004914330981264e-04,9.793588512506524069e+00
5.118618342424775422e-06,7.845918183408535874e-04,9.793586993345881453e+00
-1.173952587069438452e-07,7.826022119443942987e-04,9.793591889433901798e+00
-5.776224714916196930e-06,7.772834536403775731e-04,9.793591954442669945e+00
-1.254242435424661323e-06,7.750972861464299922e-04,9.793588080479745273e+00
-2.508322644463188704e-06,7.847748866064420360e-04,9.793588753220157983e+00
9.164794020266938009e-06,7.807835390464199768e-04,9.793592823019672267e+00
6.692990371786272762e-06,7.872284278148477350e-04,9.793588298485660815e+00
1.322263141793628627e-06,7.900055381078319302e-04,9.793595530151693040e+00
1.386527652416635940e-06,7.867484914673241771e-04,9.793585479103473546e+00
-2.184510343198474158e-06,7.787276388623336947e-04,9.793590417872747977e+00
-9.885831419133959968e-06,7.857914593733790563e-04,9.793594162863264785e+00
-3.086095202498001314e-06,7.803329580379932389e-04,9.793594830877827562e+00
-4.761003567322266124e-06,7.821296047854354961e-04,9.793592888363937377e+00
-1.040013557923208042e-06,7.786735842301379176e-04,9.793586248285850004e+00
1.186482542465381732e-05,7.776721442361249738e-04,9.793590235336651517e+00
7.646925386635892173e-07,7.788578682628799835e-04,9.793591595329486310e+00
-3.833042224199744177e-06,7.759045001658098142e-04,9.793595772391848087e+00
-5.331603829864664080e-06,7.887046934170082639e-04,9.793594524138864443e+00
5.157387897862398961e-07,7.845568363968301057e-04,9.793586610985945740e+00
3.890143208146555509e-07,7.798021059839497105e-04,9.793585827655553189e+00
-7.692227831039775469e-06,7.853061699802098587e-04,9.793597978843461505e+00
-1.696145536523065037e-06,7.796051408206271325e-04,9.793588542447297485e+00
-4.095735133960118503e-06,7.789264184283857875e-04,9.793589269240859707e+00
3.191948967236522677e-06,7.830132615710404817e-04,9.793588661728378497e+00
5.348653339636255114e-06,7.838147026195882439e-04,9.793587823345704990e+00
4.038940865530605892e-06,7.792738614124672131e-04,9.793583410282096224e+00
-1.028001229893725908e-06,7.859848131233364461e-04,9.793595771746709033e+00
2.963525569291734646e-06,7.781642379649178704e-04,9.793582629989073141e+00
4.919800650603764579e-06,7.803609572102543270e-04,9.793596355101199080e+00
3.661307319247360272e-06,7.804001808252461567e-04,9.793591809106766632e+00
7.644684030882744844e-07,7.844750127605544130e-04,9.793590390072019147e+00
1.967417287891704753e-06,7.717713400892564331e-04,9.793590832547552694e+00
2.582176068462858542e-07,7.770266512057462252e-04,9.793583592242711688e+00
-6.820340228547330216e-06,7.877833824769563727e-04,9.793596758992380913e+00
-5.326234630414639121e-06,7.786716866608345148e-04,9.793586377971502444e+00
1.872914841742850692e-06,7.848267013486270394e-04,9.793586951206380675e+00
3.773623041135514477e-06,7.851955772797937711e-04,9.793593491715851584e+00
2.089781344637079388e-07,7.828776726882735390e-04,9.793583753253210844e+00
1.483499080679581218e-06,7.844403711379232006e-04,9.793594204003559511e+00
-3.151741580783460893e-06,7.852863268030162375e-04,9.793584064100032904e+00
-3.786218614894924011e-06,7.782630388214025396e-04,9.793587087739030750e+00
4.757593082919833189e-07,7.804695640531837154e-04,9.793589553424697058e+00
-3.062345456537545773e-06,7.756801583567062746e-04,9.793584569339941481e+00
-3.532369202242956719e-06,7.806018248035130483e-04,9.793587152296531428e+00
1.220341040715846385e-06,7.809409623602984801e-04,9.793592291581157738e+00
3.207861528011868643e-06,7.883581030176129573e-04,9.793591458392734594e+00
-2.902421382144599750e-06,7.801507283497786721e-04,9.793590094735154850e+00
5.204824791369809877e-06,7.784798162715786483e-04,9.793591522011437789e+00
3.807424013269074344e-06,7.801518106243066986e-04,9.793593700131379975e+00
-5.204523721168785362e-07,7.823966063334977144e-04,9.793589205031503653e+00
-1.874036877927280443e-06,7.796932351885858684e-04,9.793586910571843163e+00
-6.737641811654312442e-06,7.822707171805432002e-04,9.793589618063977653e+00
5.881802128825138254e-06,7.786595861330005471e-04,9.793586755553224776e+00
5.179593762005209632e-06,7.791207051712271915e-04,9.793595329549276585e+00
3.769639059269458332e-08,7.789942036749027653e-04,9.793591295264530316e+00
3.826868138661163409e-06,7.947507567710526081e-04,9.793587795085729297e+00
-4.232785226516463020e-06,7.820078591402198319e-04,9.793590571752332608e+00
1.731038242085107379e-06,7.832879421233343402e-04,9.793582139903339367e+00
-3.524238722024878768e-06,7.844077633263743174e-04,9.793590897289572439e+00
-4.766353180440026630e-06,7.844835568388990911e-04,9.793586635960037867e+00
3.802301894260589570e-07,7.839419946941528043e-04,9.793588687132547932e+00
3.056676772498456776e-06,7.812897607330469840e-04,9.793593876605083182e+00
-8.969367008748067112e-06,7.799986005612362210e-04,9.793591785473989120e+00
6.167959219379481397e-06,7.844316710503561633e-04,9.793586087896272829e+00
-6.596534335618323891e-06,7.839002592703252876e-04,9.793589971647568504e+00
-2.746419826388544391e-06,7.809558085713302856e-04,9.793588456259634256e+00
-7.510732281206138635e-06,7.808888796220466236e-04,9.793590731249048886e+00
7.760733041021667080e-06,7.798261034571118662e-04,9.793581954850742122e+00
1.453064540223914027e-06,7.800848765863255610e-04,9.793591710141498652e+00
-4.066718360940063279e-07,7.859559877075131826e-04,9.793590408213225018e+00
-2.420210296135584782e-06,7.788076379661101282e-04,9.793582246353047083e+00
1.850263704921178759e-06,7.769058706595350717e-04,9.793591946915194413e+00
-2.382965243086569003e-06,7.795819676393550383e-04,9.793590659435045254e+00
-6.012755607773803411e-06,7.908579869941841436e-04,9.793583490675766612e+00
-4.161463228166572105e-07,7.840538122883396145e-04,9.793593886910201718e+00
3.711249206950387187e-06,7.834464152576062212e-04,9.793587873921824283e+00
4.838189316198582958e-06,7.783806015556109454e-04,9.793599672799571110e+00
-4.398206092520479041e-06,7.853574068169645378e-04,9.793582801237228352e+00
3.658904906020314851e-06,7.857829070705579398e-04,9.793589237032572115e+00
7.219277234377654789e-07,7.809048136265042944e-04,9.793594691398888941e+00
-2.605995613307866178e-06,7.790376337626004526e-04,9.793598934238392673e+00
-8.362746932899243197e-06,7.775392816566565994e-04,9.793594491373630362e+00
-4.803589182619355560e-07,7.899071736354161153e-04,9.793590276732322408e+00
4.652927026626900466e-06,7.856228892102176458e-04,9.793584326463273371e+00
-3.951475501063987571e-06,7.911814938446930711e-04,9.793593242333814786e+00
1.845436427895887527e-06,7.814598279020820411e-04,9.793583580128919053e+00
-7.215618695020829969e-06,7.864284599639908722e-04,9.793585197210560978e+00
-1.424978094571475408e-06,7.801313323687804899e-04,9.793586942120477090e+00
-1.253375049839955091e-07,7.850513099930577421e-04,9.793591950849599215e+00
7.718523245636221082e-07,7.821888697454136693e-04,9.793591518706255883e+00
4.988250268763525420e-06,7.810439201987680238e-04,9.793596222129259843e+00
3.213037790306895344e-06,7.834206790562179981e-04,9.793588621018423979e+00
3.772620430872157520e-06,7.786995492389489106e-04,9.793588598430341463e+00
3.838696906931515784e-06,7.809387807652562767e-04,9.793591051887219123e+00
-1.949082720636937119e-06,7.828957901969274547e-04,9.793590660080354837e+00
8.097390536664013210e-07,7.850432968712461445e-04,9.793598966382754512e+00
1.493565886896695447e-06,7.868070866827270131e-04,9.793588057681226644e+00
4.230685672397997605e-06,7.830175592149810722e-04,9.793592685783147900e+00
-2.301691437063282345e-06,7.834113267354359325e-04,9.793590336698439813e+00
-7.377609739539252685e-07,7.821865315778945855e-04,9.793595119334012722e+00
-4.074724036772736806e-06,7.906453597973636454e-04,9.793591075140218649e+00
-1.732741732711386470e-06,7.823690600194960904e-04,9.793583595579384848e+00
8.161302154321494620e-07,7.751903437927471288e-04,9.793594532963647126e+00
6.264890230629161957e-06,7.825009318680625249e-04,9.793590065569416581e+00
1.180613007069142574e-05,7.787361144527543818e-04,9.793590425562578972e+00
3.208825246626585828e-06,7.832716198275686001e-04,9.793593809221864177e+00
8.279875586772308203e-07,7.813119771940794803e-04,9.793590901399159776e+00
6.393615474023006354e-06,7.830778528911988253e-04,9.793585864918931350e+00
4.198143876554155221e-06,7.735416177553337434e-04,9.793595514752055919e+00
2.265467007009795107e-06,7.832356522458918096e-04,9.793591003490220714e+00
-6.355705966538348543e-06,7.780323521298553383e-04,9.793595556330830121e+00
2.318630582598196158e-06,7.876233999909218854e-04,9.793589120124288172e+00
7.409281534467222186e-06,7.803920298376486060e-04,9.793585383591366877e+00
5.738281617617682993e-06,7.848072281634337804e-04,9.793587583224979909e+00
1.245302666273740611e-05,7.803604376196061508e-04,9.793585141516139458e+00
4.966961100843899106e-07,7.809430906554777879e-04,9.793587203844825950e+00
-4.256214532988289875e-06,7.812663294833518133e-04,9.793597650556826295e+00
-8.969466482462096724e-08,7.812587198829084451e-04,9.793583697437000524e+00
-4.231116151596488925e-07,7.880095034644533925e-04,9.793596247532271093e+00
3.668932193959936013e-06,7.835713532877712668e-04,9.793584751758615425e+00
5.641625917239132019e-06,7.755864726686251438e-04,9.793588863187455473e+00
-1.442271576788251358e-06,7.784868492052199242e-04,9.793590401891950847e+00
-1.734155493811699042e-06,7.962039754611758028e-04,9.793585928737453372e+00
3.598431830400252486e-06,7.813674123491251566e-04,9.793585397767559542e+00
1.470471526511372837e-06,7.889508328076838854e-04,9.793583125982671334e+00
1.438692551813557851e-06,7.838605562801929634e-04,9.793591158189361323e+00
3.837582038543964311e-06,7.898544620589967400e-04,9.793597286061157092e+00
-2.406885853792226547e-06,7.871790473787252307e-04,9.793600492227882981e+00
1.762362557856865594e-06,7.749465411195826173e-04,9.793591234005271318e+00
8.073282794010202840e-06,7.814062666177809188e-04,9.793587537184343716e+00
-6.292731842964596891e-06,7.779201607563967797e-04,9.793591698917257560e+00
-6.126108761520657184e-06,7.789499400637390093e-04,9.793580545830700146e+00
3.449255127704330040e-06,7.796870963714615287e-04,9.793589920274047955e+00
-1.604415791844762947e-06,7.826623195646721914e-04,9.793596678343460482e+00
-3.833850784359645134e-06,7.785004961511026280e-04,9.793583651743249519e+00
7.593132962757174097e-07,7.832772190105187883e-04,9.793581577473826627e+00
6.913576469272876165e-06,7.868210814141908668e-04,9.793590541181188769e+00
5.687913287751760185e-06,7.826175227007888934e-04,9.793581516583337532e+00
4.740476465519794728e-06,7.762087388857622731e-04,9.793588801998582838e+00
4.821783976293768435e-06,7.812565940623374377e-04,9.793598584848648869e+00
4.241301437636522575e-07,7.742400613118343398e-04,9.793590786968357165e+00
1.070527985803386545e-06,7.820617626700459516e-04,9.793588790227980567e+00
-3.086684822785403066e-06,7.794836549000692645e-04,9.793591564824007278e+00
3.205127162654336429e-06,7.760245814593568414e-04,9.793588245035282469e+00
9.214490375578022017e-07,7.777940696147166069e-04,9.793588693953120483e+00
-1.091342475789451497e-06,7.840850698519762118e-04,9.793587588057119930e+00
2.507338764756944343e-06,7.863029134017163581e-04,9.793587416338100482e+00
-5.205156739889409615e-06,7.855720877962846802e-04,9.793595265301361152e+00
2.333924331620662616e-06,7.834257577943862976e-04,9.793587828194590728e+00
-1.700948350063328780e-06,7.849396382214331820e-04,9.793597289753840585e+00
-4.497108681939343597e-06,7.878365689933732345e-04,9.793594070156345310e+00
-1.427621400014870316e-06,7.859350961277271732e-04,9.793594073534750422e+00
3.174269805195418854e-06,7.839537731247711192e-04,9.793593484004956551e+00
-3.694577751438875332e-06,7.793989353787716652e-04,9.793582012259316016e+00
1.053825364209849272e-05,7.842845922274220517e-04,9.793588665051011333e+00
2.904437694569972950e-06,7.847384657384548490e-04,9.793583275892917328e+00
-7.493258332521799344e-06,7.778471373036819009e-04,9.793592803005157776e+00
5.807748666611342252e-06,7.869721868507480221e-04,9.793587425054985474e+00
1.604033923478723263e-06,7.802247667745632661e-04,9.793591473217061250e+00
5.022901478054733019e-06,7.786790655808099914e-04,9.793589481715656575e+00
4.635652090502559040e-06,7.871753309308986623e-04,9.793586470552172685e+00
6.620912881891158104e-07,7.866586339172692384e-04,9.793584513974620265e+00
5.383971846231105503e-06,7.857840020738864019e-04,9.793585373298069996e+00
-1.383221062569399802e-07,7.831371028402557815e-04,9.793598419973394087e+00
1.934324310352030006e-06,7.770355314978618115e-04,9.793591537138118142e+00
1.762370904349305344e-06,7.816990354755382628e-04,9.793598191530513475e+00
-3.716707820322478909e-06,7.819442902567362011e-04,9.793591614923998989e+00
3.305823184621997046e-07,7.840888199182910901e-04,9.793586003337804158e+00
1.117873168397059818e-06,7.824712538501616722e-04,9.793588367955033291e+00
-1.574578311903995406e-06,7.880420301122634599e-04,9.793596176172139067e+00
9.036232311112549486e-06,7.757051255308462573e-04,9.793594417235786054e+00
1.640867731067244863e-06,7.829565372886701687e-04,9.793585034230336106e+00
-4.019028623362266824e-07,7.830985256254845194e-04,9.793594594620818938e+00
6.175694817794743225e-06,7.859187132105107569e-04,9.793591447792440619e+00
1.128132659854852373e-06,7.831032117704479116e-04,9.793593334793490257e+00
5.726620077282190116e-06,7.830079492993574988e-04,9.793594604383592639e+00
-3.318658082873258222e-06,7.883469373053018318e-04,9.793595299314215907e+00
7.103792341188508586e-07,7.848854426709988468e-04,9.793593390190508785e+00
1.658810490934675704e-06,7.784134298901692955e-04,9.793586581520555612e+00
7.348678259182423429e-06,7.871140083363594884e-04,9.793588389103883074e+00
-4.437474499865868636e-07,7.828069353943070815e-04,9.793592720145355202e+00
-2.067425432873301799e-06,7.838167345362351181e-04,9.793591554989365733e+00
6.041367610761795504e-06,7.857735498187078419e-04,9.793581985668922130e+00
-2.062278582670677041e-06,7.896904928269020190e-04,9.793582710714858308e+00
2.819145138513815990e-06,7.771465791552101612e-04,9.793589229120232886e+00
-2.491800803523578236e-06,7.849658249810335638e-04,9.793589135476143070e+00
2.708375364033815859e-06,7.834571625113720796e-04,9.793594770889864520e+00
3.473445261562894295e-09,7.891823328587337745e-04,9.793595345215321046e+00
2.682615643097975924e-06,7.767774458949538606e-04,9.793588235198310343e+00
-2.187093457582849378e-06,7.853963969399356190e-04,9.793590778806764874e+00
-1.250543602448255040e-06,7.832884645619540495e-04,9.793592298294754528e+00
2.028513525165560186e-06,7.832865221656158759e-04,9.793590365618108251e+00
8.229278224908944621e-07,7.798036402662313375e-04,9.793594256837128142e+00
4.286407144958416750e-06,7.895652179881152907e-04,9.793591696444993389e+00
1.027046833128947242e-06,7.882590424128541832e-04,9.793595108276479166e+00
3.543233826832419835e-06,7.811526089685729606e-04,9.793585148454315714e+00
-1.598469024324344267e-06,7.814086161287194790e-04,9.793592708536234426e+00
-3.938265020737554582e-06,7.798338679408199766e-04,9.793586299872700351e+00
1.047071987732886432e-05,7.813787011547868987e-04,9.793593953410095310e+00
1.564574057810811952e-06,7.860696903241904147e-04,9.793595253363546860e+00
5.443484643133416945e-06,7.797211269902392175e-04,9.793583125325040939e+00
-4.586829719480817179e-06,7.831877880427517893e-04,9.793595054938569078e+00
2.712551215859009821e-06,7.828753357590674013e-04,9.793589945163041932e+00
8.089660269044628897e-06,7.806064523192721930e-04,9.793584493193943530e+00
7.820082755485469427e-07,7.844217964375888291e-04,9.793595056407637500e+00
-6.040080461509149966e-06,7.779590325652595674e-04,9.793595941401727956e+00
8.898259173869409888e-07,7.760413884035428271e-04,9.793591390890608039e+00
2.718777880475974001e-06,7.861986306744485342e-04,9.793589130336059156e+00
3.551733490368076005e-06,7.863780915262041623e-04,9.793595435549590889e+00
9.345348304146507064e-06,7.809146368201329335e-04,9.793591367500511069e+00
-3.287189944624536448e-06,7.874165981117034864e-04,9.793578484983884280e+00
6.333455925299851891e-06,7.787952074022389242e-04,9.793584627026060474e+00
-1.196892799385017722e-06,7.843352682457710185e-04,9.793581590060401965e+00
6.132150552313191821e-06,7.771810810437405643e-04,9.793586093145679072e+00
2.836497611563765421e-06,7.815232904299083180e-04,9.793597426782866933e+00
8.564000456476434264e-07,7.856946034132801472e-04,9.793594050988332356e+00
-1.794298680919913564e-06,7.748200144048587737e-04,9.793594931465316122e+00
-5.120572994718818226e-06,7.809714222120243358e-04,9.793588985870332664e+00
-5.170553382349117097e-06,7.894996618563189213e-04,9.793594090164679855e+00
-1.701336143717902825e-06,7.784986343124109453e-04,9.793591870911081188e+00
-4.692123763589353086e-06,7.798639066794894057e-04,9.793589175030486871e+00
2.718896161959758922e-06,7.845761715639838763e-04,9.793586229154849221e+00
9.437095141924584619e-06,7.820170878400789375e-04,9.793582390739064891e+00
8.012859066148372570e-06,7.756408965549498220e-04,9.793590388235827504e+00
1.190182261691607461e-06,7.838793265402196897e-04,9.793589519626836548e+00
5.371950672251084474e-06,7.809820313336685678e-04,9.793589974726112146e+00
1.125779007256098951e-05,7.785523363070473782e-04,9.793585540427230285e+00
1.708375766142171300e-06,7.830183657539350767e-04,9.793589214951722965e+00
-1.441064671180692792e-06,7.761962977395508350e-04,9.793590554336249809e+00
2.909823645308495944e-06,7.814304529733353318e-04,9.793585063509427258e+00
-5.993869995507703514e-07,7.888981110627461390e-04,9.793591350170776977e+00
3.367579350530628456e-06,7.790354761664673375e-04,9.793595196143025206e+00
-3.802264249446672888e-06,7.834032126070631470e-04,9.793590832006280777e+00
7.781478607898237741e-06,7.768662240768231487e-04,9.793589538746772405e+00
-3.920494561092383399e-06,7.856364210535231405e-04,9.793597376984813252e+00
-6.921925201373449203e-06,7.786934939737578465e-04,9.793593730672355946e+00
-3.876341369632448251e-06,7.849611595118461500e-04,9.793596262362113336e+00
6.178874331125060597e-06,7.828726338218466732e-04,9.793588486520343750e+00
-3.943933089417592869e-06,7.833042010481012021e-04,9.793584382719076942e+00
-2.569287058484687891e-06,7.759969862895943092e-04,9.793593812766266282e+00
4.174681392122109406e-07,7.795893814962331697e-04,9.793589389476197837e+00
3.257883709677470353e-06,7.811779585604072427e-04,9.793591933145782136e+00
-2.398521154291152187e-06,7.833222967159630306e-04,9.793593046692327775e+00
3.118438023644460828e-06,7.871714876766407448e-04,9.793591057893106466e+00
1.028652205069714988e-06,7.782550610652406954e-04,9.793595035232401713e+00
-6.272943733181889145e-06,7.845072564181273340e-04,9.793593501874330087e+00
-9.846397615968875886e-08,7.818012303500802016e-04,9.793597625650912519e+00
-6.781365357729484680e-06,7.812921470449016997e-04,9.793584821248833450e+00
-4.286985361445953889e-06,7.796806560040267509e-04,9.793584681119581248e+00
4.721388865977221031e-06,7.840792263433440500e-04,9.793585940705353821e+00
2.377228015422376749e-06,7.811253834783038258e-04,9.793592174039719822e+00
8.200962075391218776e-06,7.830360881820886678e-04,9.793586274767742239e+00
2.235999819583824384e-06,7.798775928911892696e-04,9.793589936252560690e+00
1.086358340831846025e-06,7.845961401387403821e-04,9.793593410299623159e+00
5.663917288007883468e-06,7.851265965995001938e-04,9.793587304622150214e+00
-1.426038084718388192e-06,7.830374190706318113e-04,9.793594136772759029e+00
7.247694813338051491e-06,7.754809015436996611e-04,9.793596261652032453e+00
9.170575301054304976e-06,7.843809506565915281e-04,9.793590675875337936e+00
3.545432709838836141e-06,7.775412196802381675e-04,9.793593581516548241e+00
6.118100716198869971e-07,7.805905797473792866e-04,9.793589462477282126e+00
2.241937822699004474e-06,7.839933121549742595e-04,9.793591147932717789e+00
5.956283813508043252e-06,7.864626677196561843e-04,9.793585618604838672e+00
-1.197912375304360429e-06,7.727759958240254133e-04,9.793591549379888406e+00
-2.749538519088704430e-06,7.871138092775893701e-04,9.793585222904846788e+00
-5.315185475038949421e-06,7.815312847531852465e-04,9.793590360636130754e+00
-3.638779684538478957e-06,7.809996548372239366e-04,9.793593236684563053e+00
9.410437261361279134e-06,7.886951754826000867e-04,9.793597292934654419e+00
-2.873979478713837251e-06,7.850289217431088203e-04,9.793591240014928090e+00
4.126288650867716544e-06,7.816045746443673345e-04,9.793599772597932684e+00
8.816537179271244167e-06,7.869656593091975535e-04,9.793594769279261314e+00
2.208251234315848018e-06,7.815701101237234943e-04,9.793582552622709159e+00
6.142891635939089678e-06,7.829032440884495887e-04,9.793588883746547680e+00
6.911638690391200031e-06,7.804399004114358001e-04,9.793592688748823605e+00
-2.792453363654458595e-06,7.794745924641148212e-04,9.793585988945480381e+00
6.058030982735412857e-06,7.870539269354703436e-04,9.793588280603232832e+00
-5.587365188283151677e-09,7.804842202078385261e-04,9.793593119065837627e+00
3.383304423713812795e-06,7.817757307142135991e-04,9.793587116356361477e+00
2.943134624096981099e-06,7.795986578122452663e-04,9.793585189808736047e+00
6.689037805304903544e-06,7.854168973719935975e-04,9.793599891721415318e+00
3.270249175177092377e-06,7.799422242124840225e-04,9.793588262607638484e+00
-1.306522389973917966e-06,7.828045629391281552e-04,9.793598444646374190e+00
5.445021753320931455e-06,7.781940068313479434e-04,9.793591677800682405e+00
-3.883202405749107130e-06,7.799083076226160207e-04,9.793598624580070577e+00
1.603522882897077745e-06,7.920724538107470122e-04,9.793592668518302347e+00
2.702574876032354215e-06,7.834118358516163529e-04,9.793583440662860795e+00
-4.612876977776337185e-06,7.860513631380849908e-04,9.793592555903885000e+00
-4.248333674552287946e-06,7.772495016769646577e-04,9.793588362873554942e+00
5.984965910627418146e-06,7.793431416121831840e-04,9.793596379450743683e+00
3.585399187960059462e-06,7.819212005068097065e-04,9.793584308826156715e+00
1.704943129429759570e-06,7.756778208196943390e-04,9.793593999089216240e+00
-1.193706476192184458e-06,7.784798164112838445e-04,9.793594634679198663e+00
-6.176523537371711734e-07,7.840015303215108712e-04,9.793587631749291589e+00
3.835946375987768497e-06,7.848805261120561086e-04,9.793585854870574536e+00
2.150496606010881584e-06,7.800568284863238161e-04,9.793584335056593204e+00
2.436953466134906614e-06,7.793298341533339089e-04,9.793586437307670423e+00
2.964645019995538467e-06,7.836016507486870137e-04,9.793591500588478382e+00
3.782263573623240151e-06,7.881471658236082097e-04,9.793595230090193837e+00
8.022577560422898966e-06,7.852882547524914344e-04,9.793592531094139630e+00
-3.034684986538126696e-06,7.824633187697436262e-04,9.793582802941148913e+00
7.086949019306651242e-06,7.858265684604651092e-04,9.793588931252257268e+00
-2.238824729006458502e-06,7.759542786502706411e-04,9.793590686333333295e+00
2.062570038654447624e-06,7.816427598530801234e-04,9.793589970945049572e+00
-5.859342480674424467e-06,7.811307614165154470e-04,9.793586531884377777e+00
1.839097165284985595e-06,7.784023454928336479e-04,9.793593241013239137e+00
5.395177922325645827e-06,7.799709518283396174e-04,9.793589354586025308e+00
-2.555621846666321416e-06,7.912758877002975220e-04,9.793590151860932735e+00
5.466392189835539790e-06,7.794492045436774439e-04,9.793588385079125658e+00
3.709963899314984519e-06,7.817588619007054479e-04,9.793586106402241143e+00
1.815168410086631112e-06,7.784132951919829884e-04,9.793588458384478557e+00
6.733849290410130476e-06,7.808847360366489741e-04,9.793586608139097649e+00
4.213345007357384653e-06,7.874752605282789005e-04,9.793593441852864956e+00
1.797647850481450235e-06,7.864404631667312176e-04,9.793588562485638249e+00
2.082259966864432693e-07,7.873184856354839339e-04,9.793594002920151809e+00
2.235581100584632600e-06,7.861138418584753601e-04,9.793585395581350994e+00
4.185249351365797267e-06,7.783494907159676547e-04,9.793596647337967198e+00
-8.424164640620148621e-06,7.859544096702397384e-04,9.793590252477560654e+00
1.597792185696609320e-08,7.862289420334794702e-04,9.793589898698231266e+00
2.236007199577673743e-06,7.783766317068793001e-04,9.793584761168817820e+00
-2.697763739601739930e-06,7.873875063195439781e-04,9.793586185671227184e+00
-1.777761312408234729e-08,7.818164129317363951e-04,9.793585683021154509e+00
6.686969703397456225e-07,7.767079859759308536e-04,9.793585614652423388e+00
1.235449115257977682e-06,7.773785617340422125e-04,9.793594201103802632e+00
3.882165719333564244e-08,7.816202425796575474e-04,9.793584981076413953e+00
-3.648246422484146786e-06,7.835703166680993296e-04,9.793589778541589297e+00
-5.910003144427919064e-06,7.803565240446780479e-04,9.793586972917751154e+00
7.574233402783635159e-06,7.789166265648842262e-04,9.793586468313376869e+00
1.118687353802925899e-05,7.749159527369881961e-04,9.793586948757234012e+00
6.144940307129392774e-06,7.797964155082110892e-04,9.793584928435258519e+00
-1.689280885388044935e-06,7.873987584439050367e-04,9.793584966177466100e+00
2.169958549956889164e-06,7.876039403448083145e-04,9.793591954618648288e+00
-7.533464345665050989e-07,7.787250818300654786e-04,9.793593619361121938e+00
-5.150540615294856526e-07,7.766026902156107289e-04,9.793588253443115121e+00
2.025154095915896862e-06,7.787697591926923384e-04,9.793585757613181286e+00
2.157788052664118911e-06,7.859100316397614645e-04,9.793585488912057713e+00
-7.022187462621005509e-06,7.781071356701004752e-04,9.793592656186010714e+00
-2.619392505073298935e-06,7.809000581076692375e-04,9.793591657267832318e+00
-3.199968829997342511e-06,7.708634380139027043e-04,9.793593907838843649e+00
1.956021653182529329e-06,7.844292309263172468e-04,9.793589777580045563e+00
1.766702598880585046e-06,7.782294935478817821e-04,9.793585031386902173e+00
-3.097813944147897442e-08,7.807277743664198851e-04,9.793583230866136802e+00
2.476494702217738686e-06,7.810537700948283783e-04,9.793594053810050326e+00
2.259566137334053085e-06,7.726329265038818462e-04,9.793595642089279352e+00
3.863255643653734162e-06,7.827834753534428092e-04,9.793588552353465815e+00
4.772721663395898516e-06,7.803948976517311679e-04,9.793586911044890542e+00
-5.497501697297686343e-07,7.839732780324818948e-04,9.793594485410260120e+00
1.077078048870833746e-06,7.791784119727836319e-04,9.793584763975939467e+00
5.668218749715738537e-07,7.779242396658748613e-04,9.793588611018439138e+00
6.659886256585690757e-06,7.806768676582903806e-04,9.793588931310335255e+00
6.877071443768321184e-06,7.828296832427093397e-04,9.793594608102447197e+00
6.069269676497083158e-06,7.801454408519676621e-04,9.793586843252445107e+00
1.180296870960711150e-06,7.861806349407564776e-04,9.793585870167003549e+00
3.618793748356617558e-06,7.756698005554064608e-04,9.793586845551692122e+00
3.117494206455350151e-07,7.721780176518722519e-04,9.793586271708845103e+00
-9.789256879171200167e-07,7.827316999585465793e-04,9.793590147903174170e+00
1.998968286826227477e-06,7.752871997941339745e-04,9.793594445730279929e+00
-1.661200776667109314e-07,7.810203353804872706e-04,9.793596295009367125e+00
1.272723306611008059e-05,7.824109037553021338e-04,9.793591242963062271e+00
-1.898672925730503730e-06,7.838377781671668904e-04,9.793595009322864087e+00
-3.254812760829767735e-07,7.822639515075333018e-04,9.793589413953432299e+00
-1.872117828098930610e-06,7.858323465401057277e-04,9.793590168017237474e+00
4.167554766832815654e-06,7.793520402288103832e-04,9.793587313215873280e+00
-1.892772491159304197e-06,7.820652363116779903e-04,9.793589227069343650e+00
-6.278822558347912655e-06,7.787355035140843939e-04,9.793589992127506250e+00
2.978983154469730449e-06,7.807957721395594654e-04,9.793589430571293164e+00
6.132778474373376800e-06,7.846874669701182307e-04,9.793587991092888245e+00
2.590660186532059747e-06,7.870957250956289643e-04,9.793588673093333696e+00
4.687292264498835378e-06,7.806330519190430445e-04,9.793586019589184843e+00
-3.229867259733190144e-06,7.815168954340379016e-04,9.793583493975919652e+00
8.494003514253799182e-06,7.799864121400042899e-04,9.793589690274387749e+00
-4.022424807872325043e-06,7.836539284892232640e-04,9.793588503330786565e+00
-1.973224722350952550e-07,7.831444773983083259e-04,9.793593089155773868e+00
-4.693030061749530448e-06,7.856274818532220415e-04,9.793591289013786394e+00
1.131265079195667504e-06,7.856853031357821518e-04,9.793585963333253375e+00
3.805728918628934158e-06,7.894396563790190237e-04,9.793585213748418283e+00
2.565722655619542315e-06,7.746169430792184491e-04,9.793598807980542276e+00
-3.689437532520722374e-06,7.825381754521704191e-04,9.793589530891665618e+00
2.741008485786183650e-06,7.775063030443841484e-04,9.793590783529261046e+00
7.478254331951982102e-07,7.810083623226643035e-04,9.793593250963747110e+00
4.476007895805827075e-07,7.864430153916163180e-04,9.793589261909312782e+00
4.553060567581820447e-06,7.783126110867626514e-04,9.793588762304903383e+00
-9.212129458578984914e-07,7.760256645390351937e-04,9.793590353298993634e+00
-3.625013470598379617e-06,7.949143038587522594e-04,9.793589042586619442e+00
-1.215768362466501358e-06,7.819587023147428441e-04,9.793597808047984188e+00
-6.777675986683527058e-07,7.770800149055341437e-04,9.793584895316405081e+00
2.759380852825520637e-06,7.816619726454210283e-04,9.793590321913880459e+00
-3.457647309779020993e-06,7.860609306185912951e-04,9.793585653662738366e+00
4.304576826660409404e-06,7.796027766079763940e-04,9.793582102794927025e+00
1.133912002932018493e-06,7.773691087916066679e-04,9.793591691787780107e+00
3.972205585548260806e-07,7.868236140183015610e-04,9.793588546892442182e+00
-6.943069473110603207e-07,7.812264378018305864e-04,9.793588927016751100e+00
7.579792142600138428e-06,7.817035919635720396e-04,9.793596672943808201e+00
1.448985907577674811e-06,7.831961776956587523e-04,9.793593014915613182e+00
-7.920848457090334746e-07,7.815681507328569233e-04,9.793594941800048304e+00
2.910220789114834824e-06,7.808646169910024885e-04,9.793588816002136710e+00
-3.956138739241145342e-06,7.864724742447463121e-04,9.793590704652560319e+00
-1.291758106338987383e-06,7.833473721928750372e-04,9.793591126368884403e+00
8.721259290304022321e-06,7.791124334929826027e-04,9.793591426120361376e+00
-5.568395912267353575e-06,7.756645045364389058e-04,9.793588128534791437e+00
7.189226955198241471e-06,7.869225729906299989e-04,9.793591303346781629e+00
4.966917996996276228e-06,7.739600726320717671e-04,9.793583527523196608e+00
2.149675756374421253e-06,7.823407075592340434e-04,9.793593841141539968e+00
-2.283109696927079701e-07,7.849732838304197867e-04,9.793592745877994332e+00
-5.985113264888813408e-07,7.826643995808356229e-04,9.793592618416500528e+00
-1.497081746122327430e-07,7.777030091975580027e-04,9.793585798929573372e+00
4.704286595231649723e-06,7.853797020007416115e-04,9.793592483380605174e+00
-2.630346005236890081e-06,7.866818694181870871e-04,9.793591210158833604e+00
-8.263597041288609245e-06,7.829230785981800868e-04,9.793592836133285573e+00
1.457421605596170517e-06,7.868184774202879829e-04,9.793596151558714880e+00
-8.047904478796302449e-07,7.846461376568410672e-04,9.793581021470936676e+00
5.623994856320615354e-06,7.809647597477235945e-04,9.793591336924661661e+00
-2.073112141642166168e-06,7.815098525405640793e-04,9.793587964065089579e+00
2.469757983947530227e-06,7.874823899532852048e-04,9.793589596412330067e+00
8.792300474042945737e-07,7.941815128547309371e-04,9.793585639752670602e+00
1.144180059214643835e-05,7.861343723138878008e-04,9.793585766106616575e+00
-1.898916027258783865e-07,7.912581692942686866e-04,9.793591245925957978e+00
-1.740648071730157756e-06,7.846542733048956142e-04,9.793588279219482828e+00
-6.119902536021444693e-06,7.852080517512764627e-04,9.793587955790505006e+00
-1.050812198768334855e-06,7.881677071737517313e-04,9.793595792576455850e+00
-5.300155567549609988e-06,7.769655746708837001e-04,9.793591140736072731e+00
8.664081842275378638e-06,7.847550262480722282e-04,9.793582871029185455e+00
-4.483465284576345037e-07,7.779537183957287117e-04,9.793595780658487016e+00
3.816061246963197593e-06,7.826115034678209331e-04,9.793589860952991444e+00
-6.438221841395534281e-06,7.751120433085788384e-04,9.793586166837839002e+00
-8.311492629460351615e-07,7.795998768098993861e-04,9.793587999495960261e+00
5.563013789431446266e-06,7.827513507141685770e-04,9.793591917608829078e+00
8.578023047114091243e-06,7.812154110150773675e-04,9.793585233890093278e+00
8.006317735154272193e-06,7.835703395847624713e-04,9.793590108763478241e+00
1.174460790932041177e-06,7.832286007526951654e-04,9.793589629595455648e+00
-1.002245144449487118e-06,7.829676787642163554e-04,9.793585883748828991e+00
4.235510211945946303e-06,7.839238174436431120e-04,9.793593563104600719e+00
5.326578817885009337e-06,7.795845170956092196e-04,9.793589233102199643e+00
-1.527039901708651433e-06,7.849962462666538153e-04,9.793586791630406907e+00
-4.865655776478638352e-07,7.825267196087238144e-04,9.793588027713200361e+00
1.146408395445174902e-06,7.833257698808966359e-04,9.793589155889145914e+00
-5.535826552507494046e-06,7.798333815933111614e-04,9.793591007664424808e+00
-2.210535049800474173e-07,7.808349022466318972e-04,9.793586378293200667e+00
1.449966571027670722e-06,7.809398334613574643e-04,9.793592667537003749e+00
5.968297884282143757e-06,7.864502166676821211e-04,9.793589249640820782e+00
-1.388659711779726233e-06,7.808326939616229423e-04,9.793594590221720964e+00
2.887854078383520833e-06,7.830082859920803546e-04,9.793584270972342409e+00
4.565102957757383147e-06,7.729829262909910332e-04,9.793595077445912622e+00
2.329247210728287418e-06,7.823903754833269348e-04,9.793589518238158931e+00
-2.750956519885533066e-06,7.817095484558846639e-04,9.793588084351004142e+00
4.525867329822016372e-06,7.845877638245800844e-04,9.793588237376756211e+00
4.068988829952145874e-06,7.808910956756817071e-04,9.793592983224732151e+00
4.275657440979718306e-06,7.836257991512351291e-04,9.793595271508360511e+00
-3.776761609266338034e-06,7.790885802606669274e-04,9.793587068266411677e+00
6.942978821844724354e-06,7.820361430414745577e-04,9.793588100024004817e+00
-2.501456165575209717e-06,7.766100748526100651e-04,9.793585366958215133e+00
9.606203751877497949e-07,7.792442028783242835e-04,9.793591483872354786e+00
-6.635770943907996245e-07,7.819635864699353263e-04,9.793591737072750547e+00
-2.940517575349245198e-06,7.869846398197658660e-04,9.793594261584146921e+00
2.583165732072538093e-06,7.815224930440957743e-04,9.793578966891399062e+00
-3.742962845361414450e-07,7.847571584309560389e-04,9.793593617104797033e+00
-3.718966253934375777e-06,7.837387600555362731e-04,9.793590403527092647e+00
-1.796288935518929283e-06,7.802703786434474426e-04,9.793591264859271561e+00
1.730315269649843667e-06,7.840729732442896539e-04,9.793590253893610154e+00
1.084941931035993628e-05,7.857939785424253830e-04,9.793590654006697704e+00
1.426290354212489182e-06,7.811966013636937115e-04,9.793596755659894626e+00
-3.907930831873221536e-06,7.800659858281747691e-04,9.793580865635833632e+00
-3.459338443377959940e-06,7.760864421855057094e-04,9.793594354708492489e+00
-1.570870860533014150e-06,7.796261646019305618e-04,9.793595440194950541e+00
1.239011243204727795e-06,7.770884059387586250e-04,9.793593561970078909e+00
-2.237368592362358528e-06,7.827211085222780806e-04,9.793597384900602165e+00
-7.267366477999230075e-07,7.847269919338300181e-04,9.793593147773488994e+00
7.317438533710410280e-06,7.824317008204071224e-04,9.793586014926940919e+00
1.762411582226888401e-07,7.805880213977519798e-04,9.793585104830560439e+00
7.369162512816582178e-06,7.819166811100788320e-04,9.793582843160837825e+00
3.642397744806399110e-07,7.869932858799274155e-04,9.793588221387501846e+00
-1.336911806211305615e-06,7.835666602493879035e-04,9.793588251917194398e+00
4.512357749924243529e-06,7.818299808191840616e-04,9.793587658171061250e+00
-1.880859389092730231e-06,7.789752547521491734e-04,9.793593817562921799e+00
-1.198112736272615911e-06,7.818471207978887382e-04,9.793595218332516339e+00
4.528724133534399254e-07,7.866752159785807491e-04,9.793598155579308795e+00
6.428738576396129492e-06,7.837854434355955935e-04,9.793597588290831268e+00
-3.258412658665827162e-06,7.856872299320999181e-04,9.793592123348197731e+00
-3.701427339520044885e-07,7.803132942512582687e-04,9.793591494981825463e+00
-7.565878327388083923e-06,7.792124301727097833e-04,9.793594534658838668e+00
-1.875449948427642264e-07,7.770970757701008364e-04,9.793590560768713260e+00
-2.469132798118014950e-06,7.883226417827923207e-04,9.793592860871500605e+00
2.525834708248072377e-06,7.795443946432328765e-04,9.793596212036950632e+00
4.443981735674095561e-06,7.757531146606855797e-04,9.793592018636271490e+00
-5.300448542797266596e-06,7.820684150196732711e-04,9.793597643106789263e+00
-6.473051470440522615e-06,7.828132920339228020e-04,9.793595260674130998e+00
-8.074312043948722525e-07,7.896887932727951953e-04,9.793585167737807851e+00
1.969106585637435473e-06,7.720382587659816885e-04,9.793595943569950890e+00
8.141703772210317472e-07,7.818080860072078048e-04,9.793588953066644009e+00
-3.238062557768175010e-06,7.797035655216025003e-04,9.793593095075715738e+00
-2.005116245250857736e-06,7.891945164608850241e-04,9.793584460465243779e+00
5.296438229016827467e-06,7.819803891307163012e-04,9.793590485993545869e+00
1.101329013759707075e-06,7.791380666256638278e-04,9.793593666679580423e+00
3.363599030605730147e-06,7.772721384303617588e-04,9.793594318603465965e+00
-2.877189584252681016e-06,7.825116353245144089e-04,9.793593278349224107e+00
-4.615691248222070156e-06,7.875529829891781851e-04,9.793587451617010942e+00
3.378938477751589680e-07,7.799192791244113129e-04,9.793594267839932144e+00
2.980088924432629820e-06,7.795078904779877095e-04,9.793582465760023226e+00
4.722414261126769119e-08,7.853172950554443811e-04,9.793590421755657971e+00
1.277046806607757758e-06,7.822899135222364034e-04,9.793590889682683098e+00
5.495589807203421242e-06,7.727886544906435945e-04,9.793595168533808959e+00
1.061782758296745150e-06,7.891893011672569680e-04,9.793597502097179941e+00
5.458274698772011260e-07,7.808812407804049255e-04,9.793584395744494131e+00
6.307732628256097831e-06,7.825869343750359395e-04,9.793584740425540502e+00
-5.641555638196570645e-06,7.830561316890854908e-04,9.793588646938172104e+00
-1.495882070686292093e-05,7.766277977535392292e-04,9.793584456600868293e+00
1.907823921252759319e-06,7.823761548703415860e-04,9.793588177684094731e+00
9.533037142915482830e-06,7.743147114849869336e-04,9.793592134377631098e+00
-4.369855485265070982e-06,7.852249290443196134e-04,9.793591719387585215e+00
6.004418314980044861e-06,7.793885142014195071e-04,9.793590868534025162e+00
1.981797170329248406e-06,7.819518546083926470e-04,9.793588053492362278e+00
3.973255317700822511e-06,7.852364919682270359e-04,9.793591144096419399e+00
-4.087539647695288447e-06,7.843311690323731501e-04,9.793591774971291741e+00
1.564770750929127244e-07,7.870659750288538665e-04,9.793596628616816346e+00
-1.047926114487725409e-06,7.833397525889677915e-04,9.793590997381942387e+00
5.202202378796974868e-06,7.803874452580329257e-04,9.793584184723339803e+00
-5.565766523107866617e-07,7.792238896759245146e-04,9.793594541846406543e+00
4.231769292696432892e-06,7.788738459292885536e-04,9.793590503623132548e+00
8.120194275293565815e-06,7.802438321996142505e-04,9.793587646471673125e+00
-9.260325049542867445e-06,7.892781768595590356e-04,9.793593042554990191e+00
1.003930833824242329e-07,7.827225418484871043e-04,9.793594114487346403e+00
-2.446623370028385208e-06,7.853997018674073937e-04,9.793588344899157860e+00
9.988443285483154525e-06,7.760046899334452873e-04,9.793593946765524194e+00
6.418527149901083553e-06,7.803635640752695215e-04,9.793590116581773586e+00
-3.394318243071860636e-06,7.731267480588622067e-04,9.793590309807601813e+00
-2.018669072544993577e-06,7.819751312389341827e-04,9.793593424765374422e+00
2.301634568072789509e-06,7.825017118832682710e-04,9.793589525993855460e+00
-3.113443877222003041e-06,7.838496468251017089e-04,9.793591814485397506e+00
-2.398380616501801983e-06,7.832702466151613167e-04,9.793585631245017353e+00
3.225172228078410372e-06,7.835648874699690895e-04,9.793586727716174778e+00
-8.773300842779984587e-07,7.789900544266154707e-04,9.793591591342448055e+00
-2.521634094022656791e-06,7.796461902659638414e-04,9.793592613612204900e+00
3.448165683618661009e-06,7.821186857285198062e-04,9.793591296772483190e+00
-2.884920570908638796e-07,7.794914348549078281e-04,9.793593862440328479e+00
3.124077474465016961e-06,7.804332080828635214e-04,9.793589665670193511e+00
1.170413350408760034e-07,7.875168809177887337e-04,9.793586211450740819e+00
-6.621815443605443453e-08,7.806080224257953967e-04,9.793593432162076340e+00
5.356299624129137987e-06,7.865938707281481482e-04,9.793587881629466807e+00
-3.230817769756088318e-06,7.854463621491974317e-04,9.793593837306367789e+00
1.567848774442866359e-07,7.845287119763419718e-04,9.793588764373906130e+00
-4.894280405754857818e-06,7.817422803846902756e-04,9.793589723804410951e+00
-4.199575905919554787e-06,7.813252852764800962e-04,9.793585838833125834e+00
-1.389296506632433349e-06,7.850207482413149246e-04,9.793586587207556704e+00
-2.768989466147966693e-06,7.825998849022860289e-04,9.793582490242522809e+00
2.844445962814825684e-06,7.920729763640296664e-04,9.793582999030597591e+00
1.196461200484191486e-05,7.856382336935117689e-04,9.793594469307480566e+00
8.459823419934136966e-06,7.882642403887219493e-04,9.793587261106946329e+00
1.547830509738605799e-06,7.848351625607897022e-04,9.793593417962876302e+00
2.882685885854929824e-07,7.810176489367118280e-04,9.793588487176300816e+00
1.433154663573212043e-06,7.818956544460096535e-04,9.793590250696839306e+00
-4.092601087077199773e-07,7.793997092596058633e-04,9.793586663935663239e+00
6.641230752106293953e-06,7.854434546373694533e-04,9.793588919987712416e+00
-1.719307898135094403e-06,7.897794104714870971e-04,9.793587972696116140e+00
1.582692185700668438e-06,7.775268689544663882e-04,9.793591201982319916e+00
4.863873942725770284e-07,7.843812448533514720e-04,9.793588535957560737e+00
8.439854257358786696e-07,7.803036091762242075e-04,9.793595538996287431e+00
-3.642907769074428369e-06,7.834028737166328889e-04,9.793587598757731882e+00
-3.669582658770154087e-06,7.780130801453494834e-04,9.793598534802656630e+00
-3.756793924490840934e-06,7.775216979969326982e-04,9.793595924805895692e+00
-2.470800587251664746e-06,7.763311612924854487e-04,9.793588241686260076e+00
7.289024495738216349e-07,7.851234498484711746e-04,9.793592057517916061e+00
3.321989259712182571e-06,7.829376776634138163e-04,9.793585703275981658e+00
1.404500181239923331e-06,7.822423702336748228e-04,9.793595765696535338e+00
-3.049059115389528621e-06,7.894644284487891718e-04,9.793591910229944020e+00
-1.684830365033042630e-07,7.790698721578724704e-04,9.793592412921835688e+00
8.618110558531089752e-06,7.777623196767715838e-04,9.793588041840106229e+00
2.354960782848070712e-06,7.868654224892770522e-04,9.793585507792471390e+00
1.453132764549585850e-06,7.769003795721922184e-04,9.793600449260088325e+00
2.872947811530305260e-06,7.878928087535422157e-04,9.793593477206696818e+00
6.134022429013555910e-06,7.842678502917711878e-04,9.793582762492306415e+00
-4.027599980652591154e-06,7.794173713919071590e-04,9.793596170206662066e+00
1.621278050382345210e-06,7.853781212936378816e-04,9.793591344478713268e+00
-2.641866849932874638e-06,7.795445273944293053e-04,9.793591550091573339e+00
1.654660634071890907e-07,7.897028803532589155e-04,9.793589433799512634e+00
3.708541934018915531e-06,7.725416079559867298e-04,9.793590568778746785e+00
-7.928556037805240629e-06,7.879961235156767536e-04,9.793581434761167159e+00
-1.726593548976684903e-06,7.875061319881918520e-04,9.793589547962755049e+00
1.027849998161333208e-05,7.787203271325037011e-04,9.793581586879390954e+00
7.491227767875737186e-06,7.874164532055897940e-04,9.793586514982454361e+00
-7.448738629361442072e-07,7.828248878226411406e-04,9.793585108769399028e+00
-2.599024120581358368e-06,7.803856124271778489e-04,9.793589623477819472e+00
2.644732868839983588e-06,7.807765836206456873e-04,9.793587165012025864e+00
-5.512746012578547439e-06,7.846581817196725478e-04,9.793586144688960715e+00
3.682981796491162820e-07,7.791024985105236009e-04,9.793585196906185786e+00
1.288861456253597855e-06,7.821408731462188091e-04,9.793595974124039927e+00
1.847920925473996368e-06,7.772949522648467174e-04,9.793591543302413882e+00
-4.114145510188437986e-06,7.783448194360764348e-04,9.793586138887103942e+00
-2.173453568383009395e-06,7.815120071194412614e-04,9.793585926616094284e+00
4.178362182082882937e-06,7.770640466131055728e-04,9.793591689345008788e+00
-6.343026349425400122e-06,7.780044014466312545e-04,9.793587591947911619e+00
2.281442097475533200e-06,7.778748951002406858e-04,9.793588766708900550e+00
1.469026956668086214e-06,7.782944036896745832e-04,9.793588682359798625e+00
-2.966152550589994136e-06,7.824910910520455282e-04,9.793582866484980443e+00
-4.904073228348045900e-06,7.803240038594909519e-04,9.793596010656106188e+00
5.428889181250137568e-07,7.776338177276664095e-04,9.793589062429905567e+00
-3.032975610999718949e-06,7.848830615499609829e-04,9.793587949860160791e+00
-3.154748417413530621e-06,7.821771607282261953e-04,9.793592423612619058e+00
-9.430223620959376266e-07,7.847393042370985226e-04,9.793582643594989534e+00
9.251887049082619825e-06,7.771734390104459780e-04,9.793592652367570039e+00
2.401269274289266749e-06,7.889184389268909248e-04,9.793586899030167103e+00
-1.362379044362702341e-06,7.859884263590304889e-04,9.793587916980547092e+00
-4.874222159221629853e-06,7.749552784075562552e-04,9.793589185755640969e+00
2.031626747321447197e-07,7.834220759465386442e-04,9.793592658400122275e+00
7.968971529745841960e-06,7.810225174235260401e-04,9.793580631171119322e+00
-2.338795222385720365e-06,7.840409263355937975e-04,9.793593773968957805e+00
-5.335972655241313590e-06,7.842490490263743152e-04,9.793590449008165777e+00
-1.554868141345045521e-07,7.889118952245781661e-04,9.793594501189405221e+00
1.245251366050627731e-06,7.842395590293111752e-04,9.793582326131081928e+00
-3.637769943547070259e-06,7.888777168616578194e-04,9.793590731014463202e+00
-1.982173485017317281e-06,7.797698209040053972e-04,9.793587187107787528e+00
5.417511975177517076e-06,7.836860161822655066e-04,9.793589442471400730e+00
-1.647556817074717688e-06,7.754629750392262079e-04,9.793592234822867226e+00
-9.702510550385557759e-06,7.821672793251431555e-04,9.793587997243443866e+00
5.397725235169264460e-06,7.812794160711157782e-04,9.793595824208424006e+00
1.496822284785450640e-06,7.833891710805283284e-04,9.793588150908592027e+00
5.441078762182036192e-07,7.819583578915252501e-04,9.793590098789472620e+00
-1.647617013702258179e-06,7.794530165619132376e-04,9.793598235894267034e+00
-8.907860220991845079e-06,7.703184578697207414e-04,9.793591250864409403e+00
5.263050729268621199e-06,7.814329437515892289e-04,9.793587429079757101e+00
-4.737117158257191937e-06,7.838662917310601323e-04,9.793590196774944800e+00
-2.917565714593368347e-06,7.775297243242117228e-04,9.793587026779670524e+00
-2.312999012432206120e-06,7.853743271681843958e-04,9.793587249401316086e+00
-4.542373474579932157e-06,7.834405296681067315e-04,9.793587912851226207e+00
-1.229910016189782164e-06,7.850835828892650716e-04,9.793588601037248154e+00
-1.185774547709497918e-06,7.830884884078894706e-04,9.793591355761728678e+00
-1.270731781429203653e-05,7.765341093775758466e-04,9.793593264599673276e+00
7.020918733704634072e-06,7.835460295449568494e-04,9.793593668412583497e+00
-4.803407934049222375e-07,7.739721656811587294e-04,9.793590158566860993e+00
-2.532851710882668770e-06,7.775416579193642538e-04,9.793594319837213291e+00
-3.812646276812373075e-06,7.770014278512618350e-04,9.793589393591760839e+00
4.601726514014996467e-06,7.822216317783948353e-04,9.793589179621777774e+00
-6.301160245654432491e-06,7.814045973959030111e-04,9.793591042507401312e+00
-1.311961394477614381e-06,7.851171762440970056e-04,9.793583681035036292e+00
5.662126075634089078e-06,7.845373769956462623e-04,9.793594593807506854e+00
-5.728400423110875364e-06,7.780522874732565680e-04,9.793586905844353652e+00
-9.364086190279580945e-08,7.818629226246420804e-04,9.793592573211425290e+00
1.076286734985867705e-06,7.865576681912257772e-04,9.793591787120249137e+00
-4.345442121339932689e-06,7.775681985893003519e-04,9.793586503538966426e+00
-8.374262188551602330e-06,7.878518404172352640e-04,9.793591004375008069e+00
3.264209898267792992e-06,7.815061665274083535e-04,9.793593644984358804e+00
1.897311958001959183e-06,7.797229386800757795e-04,9.793593500393606988e+00
-3.501549543842160067e-06,7.723105272534693021e-04,9.793583688547609967e+00
-2.161463868503006475e-07,7.845597253806062699e-04,9.793587240631342894e+00
7.113467858025848728e-06,7.849389560992652958e-04,9.793587302252012350e+00
-5.623896578364561003e-06,7.848476586902824147e-04,9.793589251182103439e+00
4.989627251589854593e-06,7.790583876321925194e-04,9.793586200175335321e+00
4.882351767664073081e-06,7.852012517114040184e-04,9.793590385169263612e+00
-1.399903217474276463e-06,7.750736525046218782e-04,9.793598737368810703e+00
-8.455841967206210893e-06,7.858872585638372035e-04,9.793591921834556402e+00
-2.671409221506203244e-06,7.817470519714065161e-04,9.793592742525534689e+00
-4.217513094227810489e-06,7.827821576176431000e-04,9.793589834505297631e+00
-7.835749994116231643e-06,7.805081845375494822e-04,9.793589731060150072e+00
1.636119389359449677e-06,7.826548766424670919e-04,9.793594912507240124e+00
-2.269356275098038903e-07,7.882075523102096901e-04,9.793591545196605352e+00
1.236872141260431524e-06,7.826126193992568409e-04,9.793592728598111918e+00
1.560223951862363466e-06,7.920380506851387118e-04,9.793585099079296086e+00
6.363804671236429407e-06,7.878298248364725429e-04,9.793581452652306396e+00
4.484252589976764789e-06,7.816044611938582562e-04,9.793595508472941802e+00
3.529636651072737811e-06,7.813013457958943933e-04,9.793587120712741623e+00
-3.453888804714948875e-06,7.846754369830409841e-04,9.793589176297613719e+00
-1.817719915084949685e-06,7.870991267453119255e-04,9.793586754909666681e+00
-8.880495451567186444e-06,7.799030150696985037e-04,9.793589092854213973e+00
-2.450209166946994972e-06,7.776544394099573322e-04,9.793598148357544275e+00
8.301506188837399697e-06,7.840402437939643539e-04,9.793586448456512272e+00
-7.439618487180432980e-06,7.804230924368297075e-04,9.793588233415913891e+00
-8.035650719911306708e-07,7.853250817356275098e-04,9.793587561524160989e+00
-1.832481470495352220e-06,7.851710630227591928e-04,9.793592244112202749e+00
-7.359867201259138260e-06,7.881779715357837201e-04,9.793592104710667101e+00
-1.906023752731267917e-06,7.839637292002751834e-04,9.793588048166167681e+00
2.823140453330942776e-06,7.807805069956167288e-04,9.793588898842624957e+00
7.386353396807376612e-06,7.821839239958174560e-04,9.793591079995325188e+00
2.475517979472597323e-06,7.827191617609095429e-04,9.793590311112891911e+00
9.219232108978279616e-07,7.773643738378873021e-04,9.793594496696915286e+00
2.096892280938024764e-06,7.738465610500344649e-04,9.793587048730419298e+00
1.810948662040991329e-06,7.870863700638244115e-04,9.793594094330252631e+00
-4.125031961568233428e-06,7.809556668450994910e-04,9.793593291498062570e+00
-4.950696417120284515e-06,7.883053393613558522e-04,9.793594093443287463e+00
2.167602812624007310e-06,7.785258130182695331e-04,9.793589781380028114e+00
6.319551410582746967e-06,7.861490604250685786e-04,9.793598475803188208e+00
-5.069793614946874479e-06,7.806607981133731030e-04,9.793598658143599422e+00
7.095960069623633308e-08,7.818676759782603467e-04,9.793587437558599618e+00
3.992451037002030810e-06,7.834707937334710716e-04,9.793598829597344846e+00
-2.070820914136803011e-06,7.782630721454552583e-04,9.793584490544542831e+00
3.198314486870749629e-06,7.924148144018246980e-04,9.793592475194937919e+00
9.511981982907856916e-07,7.802614395319274311e-04,9.793592661753146800e+00
-1.732560477899041439e-06,7.831328730467156194e-04,9.793583824183963671e+00
6.682735282161396479e-06,7.883873061249997921e-04,9.793596683598520869e+00
2.042831052285441355e-06,7.758403734136560875e-04,9.793584821989730571e+00
-6.542138863951263376e-06,7.800985369822062161e-04,9.793586942259189243e+00
7.560031202256137191e-07,7.781377037870515663e-04,9.793595492053755791e+00
-3.826659466881922509e-06,7.779977781721870598e-04,9.793597389700913425e+00
-1.105425559628924825e-06,7.792524320381534345e-04,9.793586683456103614e+00
6.519997453562306014e-07,7.844273690593979269e-04,9.793587837365041793e+00
4.618280236840311941e-06,7.865392648654566604e-04,9.793593745416265151e+00
3.739330542381714942e-06,7.887374343203192592e-04,9.793588130771311739e+00
-2.339849229228946005e-06,7.805854192801580998e-04,9.793589267462570191e+00
-4.266819120275308860e-06,7.870529796752766651e-04,9.793590972992809895e+00
9.454142264216091908e-07,7.845304070025235603e-04,9.793587480493565423e+00
-4.411832108698569092e-06,7.834706368525030029e-04,9.793592919850308220e+00
5.344215610254525873e-06,7.788042865053550505e-04,9.793595932318275743e+00
1.731058457383654049e-07,7.851599059266050088e-04,9.793590232805359008e+00
-3.337976413821594372e-06,7.899395660068558866e-04,9.793589055663906251e+00
-2.525498115714654238e-06,7.810496511848613729e-04,9.793595603399271710e+00
-4.189014191467337257e-06,7.792680257905824047e-04,9.793580122236413388e+00
-9.168698930626957821e-06,7.895974289724616742e-04,9.793592697348509901e+00
-6.736299050157919059e-06,7.818501254577676050e-04,9.793584232641679321e+00
-4.112372777449414968e-06,7.814729493804620101e-04,9.793585595794114695e+00
-8.606807289726115593e-07,7.896460297151862255e-04,9.793588183293188365e+00
-2.289434688813707805e-07,7.817631940678998687e-04,9.793589857828306933e+00
-4.024087104929456830e-06,7.834699085580831140e-04,9.793594747647524912e+00
-2.186125870255098956e-06,7.910753990069680072e-04,9.793595765652735707e+00
1.996666402829100171e-06,7.773487280885493832e-04,9.793589215714218810e+00
-9.820177807466239629e-07,7.860977673044485274e-04,9.793587651785832904e+00
-5.100563917831889906e-06,7.804807345875730161e-04,9.793589114720901989e+00
3.886323266527116938e-06,7.745211662130277366e-04,9.793589192281517697e+00
2.654710558068927034e-06,7.848822208621795493e-04,9.793593893710164977e+00
1.806222948009640489e-06,7.854277739518441279e-04,9.793590562668347488e+00
4.388660137143472703e-06,7.799901233200817307e-04,9.793588757013340640e+00
-9.852934780302259148e-07,7.773058588045961758e-04,9.793587708348137966e+00
1.212876650568984075e-06,7.760378274359501982e-04,9.793589186385490919e+00
-5.084029787404681530e-06,7.817076276633464025e-04,9.793583496724203030e+00
3.154103911755233111e-07,7.786992894475125004e-04,9.793588426259951518e+00
-4.470135955662848037e-06,7.797295863644908721e-04,9.793585360678338958e+00
-1.199333385012724318e-06,7.823257708923597687e-04,9.793588777255900268e+00
3.183383024449188056e-06,7.786943142319505953e-04,9.793584960440611553e+00
-3.301098348783046360e-06,7.753300978776329379e-04,9.793593453946476401e+00
1.725379000414065579e-06,7.802388756797238754e-04,9.793589243884870399e+00
-9.560294495179515729e-06,7.861223402934657076e-04,9.793588657053126312e+00
-6.522005403351819999e-06,7.857440934226328066e-04,9.793590480440348855e+00
2.657671026107630058e-06,7.869370158278213984e-04,9.793589975913054246e+00
-2.829082280282922806e-06,7.806322343799737247e-04,9.793585919545092722e+00
-4.532158692515013892e-06,7.801586253277383552e-04,9.793590959661809592e+00
-2.788251677147216012e-06,7.825790793678225792e-04,9.793590210918562633e+00
-2.697480439994626204e-06,7.833186163853485479e-04,9.793592969657732183e+00
7.759265416484112249e-07,7.775303498888386233e-04,9.793584707518972365e+00
6.497535068568871340e-06,7.826169885824553474e-04,9.793590739374348431e+00
-2.151149178668784947e-06,7.854552245596776094e-04,9.793589827218108113e+00
-4.145132952035038810e-06,7.817972869886524430e-04,9.793594465036253638e+00
2.855555474872841910e-06,7.776875921497900272e-04,9.793594668905832634e+00
-3.783890696410104998e-06,7.813222951051682595e-04,9.793600606368331185e+00
8.686649562739159045e-06,7.844432108640769698e-04,9.793594514191497069e+00
-6.782891414310636924e-06,7.783341821613617246e-04,9.793591959131193292e+00
-4.715933685162601669e-06,7.830327035337263054e-04,9.793587547341283894e+00
2.604664244872946353e-06,7.801196521967797802e-04,9.793594510989141355e+00
9.716628418464984057e-07,7.828766512022165575e-04,9.793595650397328711e+00
1.388192989561763879e-06,7.891477929455281660e-04,9.793585495355243253e+00
4.291528777386263970e-06,7.868013001846699316e-04,9.793589726908557225e+00
6.387380184479931559e-07,7.776312202871814901e-04,9.793593814766744288e+00
5.852182078378251090e-06,7.823228539923561152e-04,9.793585876268453561e+00
2.986856897520208639e-06,7.854433645824023891e-04,9.793588754236063565e+00
1.309155783118351368e-06,7.812768178434529188e-04,9.793585150142574136e+00
-1.041604032147143729e-06,7.822346102327280967e-04,9.793593673977346370e+00
3.628651069084217036e-06,7.799955010693973611e-04,9.793588968605034140e+00
-2.313810537621196368e-06,7.856115527374050783e-04,9.793584709060237259e+00
1.051987796397968727e-06,7.840469610317309145e-04,9.793584966982443518e+00
3.252223039885668873e-06,7.881763978808224973e-04,9.793596939636470822e+00
2.776267155807585320e-06,7.883405980443183901e-04,9.793585399504809885e+00
-1.118054406478946150e-05,7.832096104963670981e-04,9.793593551999872915e+00
-2.729693329048729950e-06,7.806328146067361947e-04,9.793583563095467071e+00
-4.058371252442940083e-06,7.791054814978068919e-04,9.793593379164523327e+00
-3.558021821807793221e-06,7.841173503972389755e-04,9.793583781539506816e+00
-1.198167174666039537e-06,7.894817403891558807e-04,9.793592051000372223e+00
-6.288454412474381042e-06,7.821895188548293014e-04,9.793593603377111378e+00
1.839548927416623799e-07,7.876517952587442717e-04,9.793588077976632889e+00
-3.510557253378029267e-06,7.840819112350141517e-04,9.793589350320273113e+00
-3.177474772683978294e-06,7.842361474731761447e-04,9.793595267583190989e+00
-1.128673699153969287e-06,7.791588508874388056e-04,9.793588072135916534e+00
-2.553860963443113612e-06,7.809637673647885437e-04,9.793589724845794819e+00
-7.261549105106705392e-06,7.786958309408963151e-04,9.793587307042972867e+00
4.500367859007495944e-06,7.740057082232709631e-04,9.793591464098543753e+00
2.085846547400161209e-06,7.799986128114805512e-04,9.793580400463557822e+00
-2.526751010040508558e-06,7.792483528434846450e-04,9.793583199248427462e+00
-2.960013892272246160e-06,7.822198731218034948e-04,9.793588698315684127e+00
-2.490674201930512538e-07,7.788301038208581559e-04,9.793582634644401708e+00
-5.554433795243114983e-06,7.742349648567028357e-04,9.793588407781552263e+00
-1.116950140641129440e-06,7.839561607423253071e-04,9.793589232010386780e+00
-2.050490365628122986e-06,7.876272858379333459e-04,9.793591371794065026e+00
3.111419049052616352e-07,7.813643786819846363e-04,9.793587622881585020e+00
2.352247698943109483e-06,7.882386994486949511e-04,9.793593133812761309e+00
3.498264492306594139e-06,7.824862166571708169e-04,9.793593104822930329e+00
-3.813103613755146438e-07,7.912127666805590046e-04,9.793597776446294034e+00
8.760664797266496817e-08,7.811718195951476013e-04,9.793584900051147457e+00
6.682860909292571503e-09,7.801789341200465831e-04,9.793591016959748430e+00
-2.224145168850237659e-06,7.808732377536436661e-04,9.793588790974400382e+00
4.983179645685502659e-06,7.812620139510077907e-04,9.793584839024733313e+00
7.536558287602890910e-07,7.884115511931983266e-04,9.793597493169663437e+00
-2.939700270381483224e-06,7.819972056064116578e-04,9.793591367603893261e+00
-4.960700550264432973e-06,7.825999119802292152e-04,9.793590360043429754e+00
9.274923116869695228e-07,7.809224478883559353e-04,9.793594984765331191e+00
1.136074959146318083e-06,7.778623319328655666e-04,9.793588553081365333e+00
-6.480670939203468524e-06,7.805601427111282008e-04,9.793588623430634854e+00
-5.554576522704379366e-06,7.898810272001491242e-04,9.793587367625974593e+00
1.629598123102942139e-06,7.761518293485737468e-04,9.793588585673019153e+00
-1.570019484860531006e-06,7.723413841810207198e-04,9.793593231956926104e+00
1.925151508542138853e-06,7.813352126448861552e-04,9.793590180806594603e+00
-7.606605067135864088e-06,7.831737597989199247e-04,9.793588972964696993e+00
-6.994397983330123778e-06,7.797034443834673870e-04,9.793592449541577594e+00
8.554068072714926076e-07,7.780718228845009618e-04,9.793599301283203218e+00
-3.408394738966863146e-06,7.859765064027116185e-04,9.793590540526823318e+00
-5.772222913689241701e-06,7.824493136070505414e-04,9.793583986250498086e+00
-2.359293071774285703e-07,7.815803484535725635e-04,9.793595030369683485e+00
-4.299845779883780671e-06,7.786955046883783666e-04,9.793591319417338070e+00
3.875548564016745819e-06,7.764363197590477220e-04,9.793586699136717755e+00
-5.977672697685145384e-06,7.764159639286593575e-04,9.793592807109492426e+00
-1.013964138750702733e-06,7.867422260587388907e-04,9.793588006357584419e+00
1.027125236647879768e-06,7.815191583892549957e-04,9.793587880720359351e+00
-7.799157647156216598e-09,7.753105348208797236e-04,9.793593043478708182e+00
2.848132409366506105e-06,7.803997073029491542e-04,9.793594909805003468e+00
7.941682843370276472e-06,7.807082000116398121e-04,9.793586463377760509e+00
-5.668009097787297699e-06,7.845540942223226764e-04,9.793591826985977633e+00
1.574866181484020867e-06,7.814157252634757259e-04,9.793585382772096892e+00
1.076591417726894714e-05,7.849394139891441953e-04,9.793586927154150246e+00
-5.384891118770519685e-06,7.866233624094621070e-04,9.793586696167963623e+00
-7.156600255103374851e-07,7.824362459212237750e-04,9.793588407972995569e+00
-1.026238883234393003e-06,7.797263683176522105e-04,9.793588479221682519e+00
-2.752362470157969657e-06,7.792004824938353249e-04,9.793591350296187770e+00
6.307257392212141276e-06,7.767111721755897823e-04,9.793584078869306708e+00
2.899679815385793543e-06,7.864239804609316972e-04,9.793591200189990076e+00
-2.601486189624582802e-06,7.836998429832438707e-04,9.793589584054076980e+00
2.215886403940435006e-06,7.917349247311287943e-04,9.793590400573901178e+00
5.587059862289690487e-07,7.830825549343644601e-04,9.793594698014686628e+00
2.447942181390681571e-06,7.902664399931503929e-04,9.793593111174059729e+00
-2.885443470144550271e-06,7.780299441099258317e-04,9.793599327936792776e+00
-6.231624084369915690e-06,7.799919374513612823e-04,9.793582290837498761e+00
-5.378854372911044442e-06,7.830461211969284938e-04,9.793595515290455467e+00
7.254466483920591224e-06,7.848267637553064729e-04,9.793585444678633678e+00
6.855166514462880107e-06,7.883236838106327457e-04,9.793599894973166187e+00
-4.500619048220132227e-06,7.775337039889653867e-04,9.793592043252663970e+00
9.994707442999071437e-07,7.835286061715608869e-04,9.793587443544828020e+00
3.788512781660821976e-06,7.858829664036858171e-04,9.793596227186917247e+00
-1.786461950701741177e-06,7.835993417982808169e-04,9.793595990366682713e+00
-3.970365036398167255e-06,7.833882806156752159e-04,9.793586584018402874e+00
-2.114675113098181377e-06,7.759281061488068143e-04,9.793594375410934916e+00
2.796511300105102544e-06,7.838273192305011527e-04,9.793597408031175178e+00
4.987002608973529694e-06,7.824690253096032010e-04,9.793594542581816498e+00
6.174531363844234221e-07,7.833426257333016762e-04,9.793588463836147895e+00
-4.939792858788967828e-06,7.742161920275465216e-04,9.793594785291316995e+00
-2.952383176612108840e-07,7.803681623442514656e-04,9.793590835045600684e+00
-3.822767744146040279e-06,7.814889583499634021e-04,9.793594803246612912e+00
-5.422949254441569649e-07,7.795302470719361106e-04,9.793594512459016244e+00
-6.933105705201649322e-06,7.799180119413365872e-04,9.793593082175616971e+00
2.861742547078245015e-06,7.818548095427398223e-04,9.793598437598497242e+00
-7.070644748432006095e-06,7.789941908702780003e-04,9.793588719794685815e+00
7.509645893040253116e-06,7.816140727130830874e-04,9.793598912862934824e+00
1.232664520525043232e-06,7.864831508871724785e-04,9.793584897599631134e+00
6.121601057122694304e-06,7.797563202859236981e-04,9.793592173488647745e+00
-2.342483536725416391e-06,7.766418735007350749e-04,9.793593893754920288e+00
4.130206274075975004e-06,7.838687466337314683e-04,9.793586935834573737e+00
-6.501335249571578870e-06,7.840667855139410404e-04,9.793591171757475067e+00
1.446596655273187275e-06,7.794760588682294938e-04,9.793581155680925576e+00
-5.558871392851648251e-06,7.793071457344400571e-04,9.793591749668221880e+00
-6.462203476120486253e-06,7.856293436864162771e-04,9.793584014437778151e+00
-7.702116955866995088e-06,7.848168786877588680e-04,9.793586783488620995e+00
6.908404243487144782e-06,7.885203265310831164e-04,9.793587472879909939e+00
-3.096130922144847326e-06,7.827803670924490592e-04,9.793588199475603773e+00
-1.705914100900307459e-06,7.832087079435620354e-04,9.793590493206343339e+00
5.437856401668464622e-06,7.849747722334174263e-04,9.793589987961201615e+00
-1.053991721111088884e-05,7.779480054968440682e-04,9.793586516837041955e+00
-1.657167200394481683e-06,7.858596626159344237e-04,9.793595745586499035e+00
-4.830218799793763092e-06,7.770854457558832185e-04,9.793591645466340978e+00
6.024166866452301767e-06,7.799245592428704190e-04,9.793590687405917095e+00
-4.998157625234241645e-06,7.765428264034898763e-04,9.793586330551432795e+00
1.798178262440072706e-06,7.821152669909621101e-04,9.793586189932156572e+00
3.654953166295193409e-06,7.867516173245892638e-04,9.793590254761298297e+00
-1.388329225926229826e-06,7.821679744257836134e-04,9.793593499383105083e+00
3.040738823896671905e-06,7.880288447088142599e-04,9.793587350615734266e+00
-9.249597831362924602e-06,7.896884845110399911e-04,9.793594329507305574e+00
-1.828433114417821224e-06,7.871767420409032240e-04,9.793594203765849215e+00
6.497213575225148168e-06,7.757374090512175703e-04,9.793590605467425547e+00
4.300141096604501708e-06,7.807111863469124152e-04,9.793592647464850032e+00
-8.102783519508403349e-06,7.832079991025272300e-04,9.793596286254528493e+00
-3.940347060373152979e-06,7.803350602148188646e-04,9.793585231156155757e+00
-8.461725875406403622e-06,7.801448897616806511e-04,9.793596125038169120e+00
-4.758432184074491368e-06,7.863887550777448566e-04,9.793587323732133143e+00
4.941451130957457671e-07,7.791861376814914961e-04,9.793588891859931422e+00
-1.138750393205128244e-06,7.798483155102888800e-04,9.793594651359416758e+00
3.618940482399699899e-06,7.800346182192238395e-04,9.793589617804125069e+00
-5.928261934295855733e-06,7.766800540047760987e-04,9.793593624707334300e+00
-9.931156929836079357e-07,7.883103145492653977e-04,9.793587448914774285e+00
-2.379292136865112533e-06,7.838875182235265212e-04,9.793590985155319117e+00
3.263373698757774785e-06,7.853476911106974665e-04,9.793595495799097606e+00
-2.700263972540311699e-06,7.851352186760017417e-04,9.793583936195441098e+00
5.953394484932147412e-06,7.834593140929789696e-04,9.793597877857216361e+00
3.378595380807994795e-06,7.871554016727997250e-04,9.793592958895890987e+00
-7.126468758840040520e-06,7.799431377598460211e-04,9.793593723750392499e+00
1.685376942863248750e-06,7.849293559696380630e-04,9.793595921297800544e+00
3.034647804671202361e-06,7.783121333002586059e-04,9.793591432798420371e+00
1.673447620532179460e-07,7.798149887118965189e-04,9.793594224992146380e+00
-5.994931857195046093e-06,7.782318637446379844e-04,9.793593052790878772e+00
-5.579801664542016836e-06,-1.562892297900502769e-01,9.793589840414215431e+00
6.010365764831767705e-06,-2.976712160204238455e-01,9.793591974060634087e+00
3.013355056513863593e-07,-4.249017017508814886e-01,9.793593651712290793e+00
1.075326204738314360e-05,-5.394226186340368434e-01,9.793587516521101932e+00
-1.442426426251729389e-06,-6.424730889183324356e-01,9.793582641178598891e+00
-6.957694547076458400e-06,-7.352310222994964395e-01,9.793589683600448126e+00
2.277473640019590489e-06,-8.187078563404596165e-01,9.793592813504208294e+00
-3.718280791732435244e-06,-8.938461032008203633e-01,9.793590920455663706e+00
-1.171413787677104008e-07,-9.614530570086342598e-01,9.793597547792709079e+00
-6.175435666870493837e-06,-1.022314664716152288e+00,9.793586272789347902e+00
-5.182282392408284275e-07,-1.077072236458474386e+00,9.793595731988979480e+00
4.675633392546147120e-06,-1.126378663594421958e+00,9.793599122469967000e+00
4.395337477810588060e-06,-1.170737183570513151e+00,9.793597050664462955e+00
4.759520216380314810e-06,-1.210671655884538289e+00,9.793597201900402283e+00
-6.288407994255189635e-06,-1.246596220268574973e+00,9.793590962241703224e+00
-1.073679951347739252e-05,-1.278944394818664954e+00,9.793590083712523153e+00
-9.368189588911539874e-06,-1.308043061641888105e+00,9.793586269044087800e+00
-1.960331277930336472e-06,-1.334247241613308210e+00,9.793594522813588554e+00
-3.674428795565840327e-06,-1.357817595963843882e+00,9.793590126323234557e+00
4.358242352596241258e-06,-1.379047640204757563e+00,9.793591570282810466e+00
-5.996801302279227775e-07,-1.398137749047661860e+00,9.793587979326083826e+00
-4.044073012403614477e-06,-1.415325910131326692e+00,9.793595444743367295e+00
-1.406500951863361963e-05,-1.430795441907168675e+00,9.793584852645224714e+00
3.224258210426952052e-06,-1.444722673907399280e+00,9.793582716539805944e+00
1.856046499771310431e-06,-1.457249701806904829e+00,9.793591593490933889e+00
-4.529604696643285839e-06,-1.468514946413249200e+00,9.793596011594335238e+00
-3.503100664758494971e-06,-1.478673308367579153e+00,9.793579687149252422e+00
6.420429270140980222e-06,-1.487808363905775533e+00,9.793589897327576566e+00
2.390021600204172624e-06,-1.496031846958864042e+00,9.793588068294120319e+00
-7.908960690051588036e-08,-1.503416583866707512e+00,9.793596005338969235e+00
-6.521604971999580496e-08,-1.510083540647982225e+00,9.793590265385693883e+00
-1.978076497023312822e-06,-1.516076795620709072e+00,9.793599857689068600e+00
6.494035517615861118e-07,-1.521472167924390773e+00,9.793583577858710143e+00
3.712903028599665479e-06,-1.526325658565178101e+00,9.793589431582290672e+00
-6.207593901680450661e-06,-1.530692589435090678e+00,9.793595273837150117e+00
-4.818790302203155456e-07,-1.534625718164380093e+00,9.793592567571284491e+00
-5.877373875651143913e-06,-1.538166715193099332e+00,9.793595439029864735e+00
-9.947864927406954876e-07,-1.541347810228697712e+00,9.793598323539784545e+00
-6.150280492876464137e-06,-1.544215358896089407e+00,9.793592768375383173e+00
-3.167732067088385490e-06,-1.546789601860087071e+00,9.793591894322995373e+00
-5.325461486503752867e-06,-1.549116478356187265e+00,9.793597940078527131e+00
-2.178793908059242046e-06,-1.551202828669568268e+00,9.793599371517746732e+00
-7.556381794068140419e-06,-1.553090692557030916e+00,9.793591579197718389e+00
-6.536257301492020695e-06,-1.554782530878225488e+00,9.793601839965253575e+00
-1.178239278073893684e-05,-1.556309712418584734e+00,9.793598175392798311e+00
3.989688014850927216e-07,-1.557676108861045794e+00,9.793601393755878348e+00
-3.529253842670038095e-06,-1.558917936616325495e+00,9.793583830233581367e+00
1.332215459956619733e-06,-1.560024876396279625e+00,9.793595595364095630e+00
9.489246103861145130e-07,-1.561019703848226525e+00,9.793596047088190204e+00
-5.405243750035127334e-06,-1.561912166078360809e+00,9.793589371186543602e+00
-6.463850950840377187e-06,-1.562727758291565072e+00,9.793598289736401341e+00
-3.492959982219582438e-06,-1.563457270983723779e+00,9.793596290363485224e+00
-6.807224857319364966e-06,-1.564112716265497749e+00,9.793600101884205600e+00
-2.098253744228055377e-06,-1.564704932481659094e+00,9.793596684697284616e+00
1.015407390798821705e-06,-1.565229766923105892e+00,9.793589771647727815e+00
-8.253144666681553040e-06,-1.565714063653594668e+00,9.793594372393297220e+00
-8.596095292921088218e-06,-1.566144531943203910e+00,9.793598284994102343e+00
9.655871968619623783e-07,-1.566529751897326017e+00,9.793600131888551275e+00
8.797421893104215065e-06,-1.566879565040258937e+00,9.793599183248028694e+00
-1.159812056711896465e-06,-1.567180019129082114e+00,9.793594265889522532e+00
7.021654622504887088e-07,-1.567476705341075638e+00,9.793601272167084204e+00
-7.237425868991654264e-06,-1.567731271930834058e+00,9.793599454655321779e+00
2.195517625876811948e-06,-1.567962255350936474e+00,9.793590605961862039e+00
-3.249227779033494464e-06,-1.568164949667225638e+00,9.793598632167380913e+00
8.063510824654778753e-08,-1.568356929961557400e+00,9.793596213759130364e+00
-1.843945727078670940e-06,-1.568513841398936792e+00,9.793602538985695105e+00
-4.986417091697134878e-06,-1.568659805828044762e+00,9.793595706957514579e+00
-5.025562059659072434e-06,-1.568797675211996978e+00,9.793591362763189423e+00
2.080517779161233186e-06,-1.568922668997763337e+00,9.793598973170773547e+00
-3.573495560638649029e-06,-1.569024313223820633e+00,9.793592876031146588e+00
-3.289233430409421132e-06,-1.569124029864725101e+00,9.793590390296897041e+00
-1.182624385414529834e-06,-1.569214988091440111e+00,9.793583021363952312e+00
-1.198751053229270461e-05,-1.569288554848614847e+00,9.793592548744724624e+00
-2.587636803723987222e-06,-1.569369664421965460e+00,9.793593083943376243e+00
-9.131236488049790434e-07,-1.569433761594468457e+00,9.793591999179234620e+00
-4.511099381403917904e-06,-1.569496226907757253e+00,9.793594505044186604e+00
-4.530906926530609421e-06,-1.569546006120636994e+00,9.793602943817580453e+00
1.024117725568619713e-05,-1.569604313380137395e+00,9.793598445666729546e+00
9.201665427488007421e-06,-1.569633022876561146e+00,9.793599062098028440e+00
4.688213969441363056e-06,-1.569676609044235338e+00,9.793592138129447733e+00
-7.103292348798777707e-07,-1.569697718259915664e+00,9.793598343424088526e+00
6.054592914922771182e-06,-1.569736458726526784e+00,9.793601073989494310e+00
-3.114670504463549533e-06,-1.569767893304424566e+00,9.793597040834853829e+00
-3.595742377006707683e-06,-1.569788409398333417e+00,9.793596713681877119e+00
5.505741552139069712e-07,-1.569805248032858369e+00,9.793602243505466376e+00
-2.111885965359063481e-06,-1.569830614029111393e+00,9.793596270177067353e+00
9.129690491001904914e-07,-1.569857800008017445e+00,9.793596918721490852e+00
-4.544326045934488446e-06,-1.569862145924155072e+00,9.793600971648876552e+00
6.449143481248928880e-06,-1.569883077677507233e+00,9.793601517780404109e+00
5.655160182532618826e-06,-1.569896133257852933e+00,9.793596988335721676e+00
-3.605981244993005113e-06,-1.569904851470824925e+00,9.793598583707527894e+00
6.325771668344650712e-06,-1.569921678390240771e+00,9.793602466420395558e+00
1.043238437834984254e-05,-1.569923109286506024e+00,9.793614135681425026e+00
3.992770592731243294e-07,-1.569939634370173476e+00,9.793602977217323868e+00
-1.607249038435943559e-06,-1.569938726195760470e+00,9.793602207508717683e+00
2.435132721194592471e-06,-1.569946472236232182e+00,9.793601534311410006e+00
-4.857225453100895767e-06,-1.569955655316572996e+00,9.793602099095593871e+00
-4.225535587615743881e-07,-1.569959659916915218e+00,9.793596236457970505e+00
-6.086732079838905349e-06,-1.569963628902354413e+00,9.793603828121668187e+00
4.327252817321876227e-06,-1.569976981291575591e+00,9.793597585892047874e+00
-6.221831569553002124e-07,-1.569975013986143697e+00,9.793612737472326302e+00
-9.075341542483540917e-07,-1.569986790933073806e+00,9.793611024093646478e+00
2.941206988944629186e-06,-1.569984146044648199e+00,9.793605080861096823e+00
2.600176975473242515e-06,-1.569979806066850392e+00,9.793599493670274825e+00
4.184153005554055465e-06,-1.569991993433498934e+00,9.793608773541990331e+00
4.636075272256976715e-06,-1.569992783463093344e+00,9.793606737964161368e+00
1.415144417669652694e-06,-1.569989560403104223e+00,9.793600760112722625e+00
1.520676093092561958e-06,-1.569998410319477289e+00,9.793606055181005132e+00
5.074843866111792872e-07,-1.570000540745794870e+00,9.793597640294427364e+00
-2.173409184644869353e-07,-1.570002316218091609e+00,9.793609628914174081e+00
3.813803676796039034e-06,-1.570002669578233423e+00,9.793607182164111080e+00
3.489135547815907518e-07,-1.570001405581126441e+00,9.793605372751434501e+00
-5.490377224120104562e-06,-1.570003920101982864e+00,9.793607664646934552e+00
-1.241559925276751393e-06,-1.570007552740834367e+00,9.793609376864804261e+00
3.277456481914404638e-06,-1.570005154020275739e+00,9.793606115577851767e+00
4.936178899678795333e-06,-1.570012416084870299e+00,9.793609652064048987e+00
-6.178212341440753773e-06,-1.570008210702463769e+00,9.793605369309048569e+00
-1.264098203414600012e-06,-1.570014626162569593e+00,9.793606617645641776e+00
-4.483836519347408207e-06,-1.570014629566284237e+00,9.793613584345433054e+00
-7.856965743225106041e-06,-1.570007591639830391e+00,9.793607806476533284e+00
4.652653106691028410e-07,-1.570004862377940569e+00,9.793615859917302657e+00
-7.240256128146552416e-07,-1.570008211396006104e+00,9.793617018129786800e+00
-1.695485434385933414e-06,-1.570007199112430918e+00,9.793603949751130244e+00
1.579250511791830762e-07,-1.570007454021264293e+00,9.793613835325446715e+00
-1.842020461362170646e-07,-1.570007129068816898e+00,9.793608771639426891e+00
-4.568988308735536461e-06,-1.570014455001978337e+00,9.793608767713369190e+00
3.741815597582524086e-06,-1.570017015443535779e+00,9.793613459980466729e+00
-1.099477667893181211e-06,-1.570013682428127222e+00,9.793611844395197608e+00
-4.547012152430503517e-06,-1.570013744355267082e+00,9.793615002946502557e+00
4.979156237370547348e-06,-1.570009706871003496e+00,9.793610201311816255e+00
2.015664580423931390e-06,-1.570009370257795966e+00,9.793614186275357625e+00
-2.233022720028111634e-06,-1.570017855879098923e+00,9.793612737867247731e+00
-1.178510763893898855e-06,-1.570011999967954264e+00,9.793613898229855508e+00
-1.596944155548387436e-06,-1.570013516829056988e+00,9.793605079072289499e+00
6.743624522735991927e-06,-1.570014694462159799e+00,9.793610639676995078e+00
-2.205665555121978250e-06,-1.570014436253158285e+00,9.793616849885612652e+00
4.844960397635187048e-06,-1.570013794049323508e+00,9.793608599286699246e+00
-2.438110864999618332e-06,-1.570013071366001212e+00,9.793610931975068823e+00
4.494524925894139427e-06,-1.570019593598432239e+00,9.793612065308906267e+00
-4.577059596119353879e-06,-1.570016496569357933e+00,9.793615082394474314e+00
-1.660667668663952776e-06,-1.570010766736880115e+00,9.793621552137043551e+00
9.033006185321565520e-06,-1.570015011234003666e+00,9.793622274724128829e+00
2.531137796446640147e-06,-1.570015718843295049e+00,9.793622345868422840e+00
-2.294792068940328605e-06,-1.570017932695759733e+00,9.793612413323133481e+00
3.601796713574394442e-06,-1.570003221625966061e+00,9.793619235830103520e+00
3.073872084533509920e-06,-1.570023265048533956e+00,9.793617584204220350e+00
-1.132294699315055433e-05,-1.570018924899608148e+00,9.793619932276049767e+00
2.518888753801602654e-06,-1.570014659295780879e+00,9.793615547311510738e+00
-8.148221640411358919e-06,-1.570018233232954419e+00,9.793622125458098182e+00
6.223854642043754579e-07,-1.570014532353910752e+00,9.793624468065829092e+00
-2.070829567380055146e-07,-1.570015386385507306e+00,9.793620829308563813e+00
1.141378064142508461e-06,-1.570021426154407873e+00,9.793621313541239104e+00
1.880109674501966284e-06,-1.570010664039559245e+00,9.793622069461717317e+00
5.199488439128700974e-07,-1.570017237600448867e+00,9.793619254479704495e+00
2.441203499266741378e-06,-1.570008849293332176e+00,9.793618703090196220e+00
-6.593553846029310238e-06,-1.570011507327242040e+00,9.793625594057413508e+00
-3.569569724198801768e-07,-1.570011967756163695e+00,9.793622799254222855e+00
8.154852503586566527e-07,-1.570014200275940297e+00,9.793629770174476334e+00
2.011402956416259149e-06,-1.570008730204612846e+00,9.793627844810165683e+00
-5.063902146752182063e-06,-1.570012176622503031e+00,9.793625856239165373e+00
4.873753610698759720e-06,-1.570016219838294314e+00,9.793619631177968188e+00
-2.914369692051783106e-06,-1.570014957607324790e+00,9.793624572334227452e+00
-1.410627031309953710e-06,-1.570014023111963919e+00,9.793625440793077175e+00
1.645930713440753502e-06,-1.570010595321565283e+00,9.793630227087859907e+00
-3.726676868494961357e-06,-1.570016247970015710e+00,9.793623682143074660e+00
-4.626471711574124928e-06,-1.570014736816624845e+00,9.793623960152471497e+00
-2.735295954103345884e-06,-1.570015495908436698e+00,9.793630392994090883e+00
-4.721118692272278779e-06,-1.570009412071798449e+00,9.793626947723005571e+00
3.022409443619481901e-06,-1.570017080656323616e+00,9.793628887621215640e+00
5.388627026443479297e-06,-1.570018623307862571e+00,9.793626682327806421e+00
-4.774703438167506884e-06,-1.570015099635332811e+00,9.793635331080634998e+00
1.318315822424881626e-06,-1.570009252465920824e+00,9.793623982524357174e+00
-4.142254783224698475e-06,-1.570021753722021796e+00,9.793627723834093857e+00
1.243466910537192177e-06,-1.570013079353408392e+00,9.793631297894060950e+00
-1.481525326663078029e-06,-1.570010680589043695e+00,9.793623811598692441e+00
-6.827611101067397565e-06,-1.570007150488933467e+00,9.793626515160113399e+00
5.061907793604099216e-06,-1.570018574210450435e+00,9.793635535438030004e+00
2.822969656662603754e-06,-1.570011044582706683e+00,9.793636003245755006e+00
-5.562990385318254941e-07,-1.570014903399021833e+00,9.793626433958850797e+00
4.123383738231331760e-06,-1.570014345005289469e+00,9.793629584967771251e+00
1.173941460511254202e-06,-1.570008134463879657e+00,9.793635601118312550e+00
-2.067350558768543386e-06,-1.570009215765444832e+00,9.793638104862413485e+00
-5.576884362757091330e-06,-1.570009960494046064e+00,9.793637741041454348e+00
-6.359310078144319767e-06,-1.570013111823320706e+00,9.793636321625221797e+00
-7.912646226118459283e-08,-1.570013145826268719e+00,9.793634500507552687e+00
-2.131127377180544980e-06,-1.570008085022374988e+00,9.793640903915596496e+00
-2.743173819915717422e-06,-1.570006303203437481e+00,9.793637393283109560e+00
1.357228912276220788e-06,-1.570016397439641498e+00,9.793631377740272370e+00
2.284714387570929119e-06,-1.570015027119173068e+00,9.793639277522443010e+00
-9.115834079349676894e-06,-1.570011782191253147e+00,9.793635141535025568e+00
2.056533162813348500e-06,-1.570020074355582329e+00,9.793642760841064998e+00
-3.781165994734278882e-06,-1.570012175482330852e+00,9.793645896547451102e+00
7.848895558993279663e-06,-1.570010620483550001e+00,9.793638834736846377e+00
2.070262390414007309e-06,-1.570010667044267505e+00,9.793639120770016859e+00
4.245378807402674310e-06,-1.570005134414569126e+00,9.793639574790059754e+00
1.743973791470527496e-06,-1.570016268164374340e+00,9.793642703880003353e+00
1.119581054336759816e-05,-1.570018585948103285e+00,9.793642358415649340e+00
1.024717541657782183e-07,-1.570012780715188461e+00,9.793632672799040151e+00
5.358936095884650545e-07,-1.570011555382021307e+00,9.793638387584556071e+00
-2.704621657779042893e-06,-1.570015137808763006e+00,9.793647625001799639e+00
-1.750066799205316904e-08,-1.570017819283640259e+00,9.793644860446804046e+00
2.232170316401191111e-06,-1.570014554483980751e+00,9.793652193678349605e+00
-3.245132253597264599e-06,-1.570017298221157098e+00,9.793644616148133863e+00
1.739505941015777137e-06,-1.570016139440639114e+00,9.793641863852338147e+00
1.665344339204069903e-06,-1.570010039162172744e+00,9.793654506630078416e+00
-2.437588858642700852e-06,-1.570018214491992969e+00,9.793649654146243222e+00
3.723217807745798212e-06,-1.570014920973803685e+00,9.793650880135706061e+00
-6.245033310188576904e-06,-1.570015030767311748e+00,9.793645296883678242e+00
1.180212587507906967e-06,-1.570015368518405730e+00,9.793651149684542645e+00
-5.647348742076515991e-06,-1.570023363520720805e+00,9.793651586182848590e+00
3.068184063206241522e-06,-1.570007806393511673e+00,9.793652435881433860e+00
-4.395877296721689790e-07,-1.570014201050981661e+00,9.793652236196704663e+00
-8.556818414327543464e-06,-1.570013210153180960e+00,9.793645581943032141e+00
-1.721389978454587558e-06,-1.570015048738952368e+00,9.793650827404265513e+00
-2.119221401524363363e-06,-1.570013472697890711e+00,9.793659328834170452e+00
-5.915431348980880184e-06,-1.570019037751217539e+00,9.793654300478470631e+00
1.245276608778678681e-06,-1.570011918296355447e+00,9.793653100608024076e+00
-1.427630756028221519e-07,-1.570011994245236853e+00,9.793653806918023008e+00
-9.713902246055340227e-06,-1.570021011426227187e+00,9.793654239750761548e+00
2.095418192249568740e-06,-1.570013756243776148e+00,9.793648713394000893e+00
8.827868942813623423e-06,-1.570015405430767563e+00,9.793644135127687278e+00
-1.899129832457958275e-06,-1.570020198646762788e+00,9.793662124729806351e+00
-2.883966140903333781e-06,-1.570013568949490290e+00,9.793660529740950693e+00
-3.352863375408421852e-06,-1.570017725258639141e+00,9.793660656139318021e+00
-1.778391438695282608e-06,-1.570012247761650492e+00,9.793662262337134550e+00
1.208370357869535485e-05,-1.570017415752717360e+00,9.793663403673766865e+00
6.806561239108993531e-06,-1.570007295083191590e+00,9.793660040688397572e+00
6.096323988441333982e-07,-1.570009850752672076e+00,9.793653602311671591e+00
-2.192331150034354261e-06,-1.570010699259331233e+00,9.793657854619945979e+00
-9.376415723451430118e-07,-1.570009263529911436e+00,9.793662334992422558e+00
7.936550276079421622e-07,-1.570014204691274617e+00,9.793659815026400040e+00
3.043694974984596978e-06,-1.570007941429018450e+00,9.793663937016120258e+00
1.860020175914915652e-06,-1.570017590020981624e+00,9.793670889989551043e+00
-1.498327970544112305e-06,-1.570016880687595151e+00,9.793673479475653920e+00
-2.037323296771446877e-06,-1.570016626776804092e+00,9.793662671140104692e+00
-4.060050606210879087e-06,-1.570012002597092282e+00,9.793663517992598599e+00
1.267238943790280722e-06,-1.570020287135160952e+00,9.793670846943504316e+00
-2.761269349768845265e-06,-1.570014389268912458e+00,9.793674872013646393e+00
4.887138368518692936e-06,-1.570017365207660553e+00,9.793673265897336222e+00
-1.343378852359781977e-06,-1.570016093379961619e+00,9.793674817418366985e+00
3.255099424858661439e-06,-1.570028343599678911e+00,9.793675288204287455e+00
-4.034604359660607474e-06,-1.570015387739748247e+00,9.793674287881964702e+00
8.351164497960063610e-06,-1.570007541698052567e+00,9.793678483848813343e+00
8.471836326882841044e-06,-1.570015012194625914e+00,9.793670558759275835e+00
-1.302943034285372481e-06,-1.570015003522153396e+00,9.793677619085798369e+00
4.480500415284779302e-06,-1.570009788581998356e+00,9.793678189659138056e+00
1.189203513190198621e-06,-1.570017978371832434e+00,9.793670957308380665e+00
-1.108688261684192718e-06,-1.570017039057519215e+00,9.793669174360744023e+00
1.774551033660912763e-06,-1.570014390859957976e+00,9.793676474784428265e+00
-2.668063804108096133e-06,-1.570014535481127016e+00,9.793671942859344171e+00
-4.282053481399853940e-06,-1.570007812316598805e+00,9.793686051053457575e+00
9.032693591432063966e-07,-1.570010625175043195e+00,9.793685062564485122e+00
-3.718737138707854323e-06,-1.570006372478273127e+00,9.793676882455715216e+00
-5.877948100450498363e-06,-1.570018805403576634e+00,9.793680593490783792e+00
2.740386702037628053e-06,-1.570013993010781483e+00,9.793682642796769144e+00
-1.064209514177476387e-06,-1.570018717038069500e+00,9.793681309490201770e+00
-5.771992626201206855e-06,-1.570018830985487446e+00,9.793688712568846100e+00
-2.794665891741960357e-06,-1.570015616055274066e+00,9.793681696414457960e+00
-2.314007541404424702e-06,-1.570017146195856306e+00,9.793683423500020524e+00
-8.346725356790989997e-06,-1.570005192622357271e+00,9.793681579355045130e+00
-8.963419253709524010e-07,-1.570012445177336291e+00,9.793685094010854186e+00
-1.578981057948534220e-06,-1.570011182190395038e+00,9.793682403207261800e+00
-1.669817883447300791e-06,-1.570013269305727599e+00,9.793680955332121130e+00
-2.693757187617075958e-06,-1.570014944624095410e+00,9.793688694935388739e+00
-8.440801991252242873e-06,-1.570002365504763908e+00,9.793689050093909998e+00
-2.385363342575149632e-06,-1.570012972204903212e+00,9.793688101901613763e+00
-2.945860447784932114e-06,-1.570017226974141256e+00,9.793692586490484686e+00
4.420282691941924196e-06,-1.570009358418797074e+00,9.793688550604702669e+00
-4.169722562519550072e-06,-1.570011340921689591e+00,9.793695711773590773e+00
7.485915019332449563e-06,-1.570011895744559016e+00,9.793683401119308130e+00
-3.383437633350808553e-06,-1.570021555897106902e+00,9.793697816848407456e+00
-4.602390228638836372e-06,-1.570012492677630878e+00,9.793696533083842581e+00
-1.543349802851026425e-06,-1.570021403211835587e+00,9.793695965088314637e+00
-3.154543115606862102e-06,-1.570022397881289722e+00,9.793691899921128652e+00
-6.599500669700686697e-08,-1.570022113374244688e+00,9.793698317686834187e+00
-2.153787968695822749e-06,-1.570006822148596104e+00,9.793694452541563678e+00
-5.024756799857627886e-06,-1.570020528352658928e+00,9.793702808024949746e+00
7.322652954593081263e-07,-1.570016795960797129e+00,9.793696069686822270e+00
3.413530651998805926e-06,-1.570012802942814423e+00,9.793707146139418285e+00
-7.758875681255959520e-06,-1.570018064116937229e+00,9.793704578019596596e+00
-1.442982524070384539e-07,-1.570022547484474451e+00,9.793699504207435069e+00
3.872251788864651434e-06,-1.570015401420057577e+00,9.793704782242626194e+00
-8.025989977227651395e-06,-1.570016502040348261e+00,9.793703510525851641e+00
-1.014733638637532441e-05,-1.570019861241056303e+00,9.793708025667957173e+00
3.970615721702702243e-06,-1.570008837473009899e+00,9.793701817296778245e+00
3.869510962863260961e-06,-1.570017347623081871e+00,9.793707328593736605e+00
3.548754540891063905e-06,-1.570007072062352904e+00,9.793704822779160324e+00
-9.074453723271991653e-06,-1.570013356161481299e+00,9.793707822934189622e+00
-3.149789751268799434e-07,-1.570013581919463608e+00,9.793716022198065474e+00
-1.527165176133411772e-06,-1.570017564939812926e+00,9.793712375920424762e+00
-3.663499546022189295e-06,-1.570017789997942170e+00,9.793706797806496667e+00
-1.313294109139875744e-06,-1.570017329835835529e+00,9.793710845446248925e+00
6.243556112305835714e-07,-1.570018797430196456e+00,9.793697936285163053e+00
-5.909911327910872187e-06,-1.570015996550268911e+00,9.793708513853070841e+00
-1.182969907161359503e-06,-1.570017548588730438e+00,9.793719180804966840e+00
-9.908606342271165544e-06,-1.570015593825045075e+00,9.793707509816739432e+00
-8.588998129627187813e-06,-1.570017719002787748e+00,9.793715554616341024e+00
3.263135143077246698e-06,-1.570014692846262383e+00,9.793706966768214173e+00
1.212408904454202502e-06,-1.570021125359301939e+00,9.793718287288688984e+00
-5.040930297517816216e-06,-1.570021883512674465e+00,9.793717787786238915e+00
4.877315242625088186e-06,-1.570019169203990428e+00,9.793709148124642994e+00
-4.505347575027400858e-06,-1.570011909885279611e+00,9.793721370670596116e+00
-6.296604166263406137e-06,-1.570008529940285280e+00,9.793704268448186312e+00
3.537088695473950246e-07,-1.570021671702314991e+00,9.793719763012056490e+00
-1.236755739298323541e-06,-1.570010548897469160e+00,9.793723770571643783e+00
-1.064541597138193159e-06,-1.570025214675350389e+00,9.793727797152484982e+00
3.920762007112707625e-06,-1.570015979355509517e+00,9.793719928393104013e+00
-8.499562933899606603e-06,-1.570009660584491096e+00,9.793721413390599650e+00
5.790927847327091950e-07,-1.570009879749516335e+00,9.793720275588842838e+00
2.108584770517658724e-06,-1.570011373068181060e+00,9.793724907808016411e+00
-1.921666111163237386e-06,-1.570013059451190962e+00,9.793730707212700892e+00
-3.770318427689849639e-06,-1.570011590020878200e+00,9.793728510929648579e+00
-6.387687293254631041e-06,-1.570025279254217310e+00,9.793738019959144836e+00
-3.879659235549220323e-06,-1.570014014515947132e+00,9.793720716520414982e+00
6.041789739237031640e-06,-1.570020417979722360e+00,9.793730759224597904e+00
-7.980161939574578821e-07,-1.570019715421091755e+00,9.793726593065168018e+00
4.953481172120907157e-06,-1.570013627546080315e+00,9.793739844765651625e+00
-6.546787496071731942e-06,-1.570017695797656154e+00,9.793734142305122958e+00
3.530439161527616162e-06,-1.570023460079582822e+00,9.793738468388422547e+00
-3.681807784138454226e-06,-1.570020408711379822e+00,9.793739277558232814e+00
1.531847133747625450e-06,-1.570014012947405835e+00,9.793729154494686284e+00
7.020768590409659400e-07,-1.570012613927610490e+00,9.793739898084224293e+00
1.775489426444332898e-06,-1.570022054114154964e+00,9.793737189954017097e+00
-9.090319324028192039e-06,-1.570019849715576621e+00,9.793745455518324761e+00
-4.528467345926527362e-06,-1.570015198137413304e+00,9.793731901897041681e+00
-2.929674323652934725e-06,-1.570012974700145447e+00,9.793741117861527457e+00
-5.794197854175195624e-06,-1.570012212154890285e+00,9.793730499194722938e+00
-1.776824059413877667e-06,-1.570010363702739609e+00,9.793739579578351950e+00
1.096210915262220096e-06,-1.570015199793733274e+00,9.793746629872861931e+00
-5.535964638444682839e-06,-1.570016400519667510e+00,9.793736916161716266e+00
-4.515627355178131701e-06,-1.570018175814782646e+00,9.793741228570535640e+00
-3.309507078165025187e-06,-1.570014022888677863e+00,9.793744141662305225e+00
6.570026113624970506e-06,-1.570013135562137618e+00,9.793750743646656431e+00
-2.736982121401882887e-06,-1.570017836295320546e+00,9.793748161143366104e+00
2.508972360182215565e-06,-1.570012583947897333e+00,9.793744125394852063e+00
-3.102486382246433107e-06,-1.570024372055139006e+00,9.793753757610490496e+00
2.510401085123177382e-06,-1.570016845129667882e+00,9.793751430589869855e+00
1.778375154982500055e-06,-1.570015884522060867e+00,9.793747951194637480e+00
-1.051426500166175577e-06,-1.570025767968442620e+00,9.793748007495178598e+00
-4.383459582042141971e-07,-1.570017443281072955e+00,9.793757839999839732e+00
-1.605089381065664548e-06,-1.570017597329552927e+00,9.793753755069330325e+00
1.753921619852294737e-06,-1.570014969078711298e+00,9.793758998245140290e+00
-6.737217624867925475e-07,-1.570013250139486116e+00,9.793759819885989870e+00
2.429650741122833478e-06,-1.570020405901492389e+00,9.793759969662975351e+00
1.690910778109876381e-06,-1.570021942325823039e+00,9.793761441452749850e+00
1.500127761725468954e-06,-1.570013460108586667e+00,9.793758992254520734e+00
-2.560162901377999952e-06,-1.570019623173348977e+00,9.793763877077838131e+00
-6.403963058054079289e-07,-1.570013977200344524e+00,9.793760550258586051e+00
-6.207893806940857172e-06,-1.570014364410944552e+00,9.793759078059666834e+00
4.313617015541975806e-06,-1.570012077374878023e+00,9.793752973494564529e+00
3.186956434806425638e-06,-1.570011385732773990e+00,9.793764287779371358e+00
-4.347659484875262745e-06,-1.570016142100408629e+00,9.793769050876861115e+00
8.983117712718735089e-07,-1.570013949604983639e+00,9.793761550126227178e+00
2.194026567565674437e-06,-1.570015237570413502e+00,9.793765063024794770e+00
-3.742913820021680586e-06,-1.570012386186314890e+00,9.793763058287625611e+00
4.669901121262006035e-06,-1.570016043765683822e+00,9.793776753155190917e+00
1.944629133673232475e-06,-1.570013236796587774e+00,9.793767703137721270e+00
-2.267422354593807445e-06,-1.570015462957662811e+00,9.793769023052615097e+00
1.015945109549107459e-06,-1.570015263362612545e+00,9.793769716953333315e+00
-5.789681548670616528e-06,-1.570022293171936756e+00,9.793771083573080460e+00
1.946845675637756014e-06,-1.570025451272077932e+00,9.793772066705965784e+00
3.453257447721196830e-06,-1.570016081299358435e+00,9.793779146367549870e+00
3.734321101435919756e-06,-1.570016336668577983e+00,9.793772157594240468e+00
-3.334577723469290972e-06,-1.570007680293190822e+00,9.793776962135751774e+00
-4.025985793885032221e-06,-1.570007806545576701e+00,9.793778265257564897e+00
2.635877389808390531e-06,-1.570015642436298098e+00,9.793770708289775584e+00
3.055649192804763200e-06,-1.570009956540085128e+00,9.793769972545300462e+00
-3.736474248131386990e-06,-1.570019391180464741e+00,9.793777242087305268e+00
4.412334426264661618e-06,-1.570019023606956221e+00,9.793782140443532569e+00
-2.095447530151214572e-06,-1.570013180256867757e+00,9.793784277993788479e+00
-2.434169823367526998e-06,-1.570016422235141818e+00,9.793784983247313392e+00
1.288940988684253210e-06,-1.570019784711768063e+00,9.793789381224845769e+00
-8.864400282015016369e-06,-1.570018544653028814e+00,9.793789051843246440e+00
6.343077272734177688e-06,-1.570018115706109940e+00,9.793786818892343149e+00
-4.660903072544871995e-07,-1.570024455995270296e+00,9.793793947204232353e+00
4.074096657875232404e-08,-1.570011817692782641e+00,9.793794686223119328e+00
1.068943183226853311e-06,-1.570015648972572508e+00,9.793795856608822348e+00
-1.554162778436056115e-06,-1.570017618697695516e+00,9.793786973673729079e+00
-7.885504737145000037e-07,-1.570011892500808193e+00,9.793789952067795568e+00
1.294130370839831341e-05,-1.570011299402349625e+00,9.793799969467947619e+00
-4.600258562758162309e-06,-1.570016731156026468e+00,9.793794657272320237e+00
6.692001547938799910e-06,-1.570017568489644688e+00,9.793800293414252067e+00
4.772945939840033450e-06,-1.570020863982407588e+00,9.793793888227433797e+00
-5.883645804556379110e-06,-1.570016316335492101e+00,9.793792880212267349e+00
-1.362293468275551132e-06,-1.570015118332727555e+00,9.793788799329579575e+00
1.693303348086820901e-06,-1.570021742144709354e+00,9.793798874280701838e+00
-4.206455204395418705e-06,-1.570007951516864120e+00,9.793791521057547911e+00
4.803453560765196051e-08,-1.570018246448515509e+00,9.793801301080870658e+00
-9.221925866621494098e-07,-1.570006841419017807e+00,9.793796943096479524e+00
-2.440998153958808663e-06,-1.570019375571947151e+00,9.793800915458300338e+00
1.822337872039918183e-06,-1.570020495186043918e+00,9.793806403803671401e+00
-9.459974975300408301e-06,-1.570015318810819682e+00,9.793813817533523647e+00
-5.583195882275363063e-06,-1.570023198511776963e+00,9.793805185879882913e+00
-3.160555786207573669e-06,-1.570024708730917373e+00,9.793801630643793388e+00
-1.945245583541647391e-06,-1.570016528305367753e+00,9.793806176981833644e+00
4.811671141908584134e-07,-1.570008626899374038e+00,9.793807066462683508e+00
1.271101056026294668e-06,-1.570020657392599661e+00,9.793813033395409207e+00
-3.419453911925770413e-07,-1.570016723884356535e+00,9.793816354406937208e+00
7.094757824349226316e-06,-1.570020064990215847e+00,9.793819172716384358e+00
-4.967475195668949560e-07,-1.570011880342033539e+00,9.793820726878760041e+00
4.994867092444286441e-06,-1.570012928731273849e+00,9.793812234151211271e+00
-3.863793586036735385e-06,-1.570014549854652053e+00,9.793820270420145135e+00
-3.158719220262028988e-06,-1.570018280855843162e+00,9.793821498917571589e+00
-6.914400151720219033e-06,-1.570013773724130646e+00,9.793817387693275478e+00
-5.436083368772789819e-06,-1.570016990730829454e+00,9.793813278256068955e+00
2.809735944407956389e-06,-1.570010842644375071e+00,9.793820170242870660e+00
5.666301180168021593e-06,-1.570019612799259834e+00,9.793828017505955330e+00
-1.795368517105681795e-06,-1.570009790549861117e+00,9.793821416189590678e+00
1.396876134966420921e-06,-1.570017743303708135e+00,9.793826378122089338e+00
-2.923316088358633271e-06,-1.570019681276687562e+00,9.793829352625996520e+00
-1.822834693867974250e-06,-1.570012996353841617e+00,9.793827902507295846e+00
-4.050088163330231178e-07,-1.570008270263542283e+00,9.793829969450264628e+00
-7.514974609194267591e-07,-1.570015457293271188e+00,9.793822404258865078e+00
3.958775823106431779e-07,-1.570018573931948547e+00,9.793824162399456412e+00
-7.272225412945584255e-06,-1.570018119494444253e+00,9.793824044288697905e+00
-2.824191706422831416e-06,-1.570019179702253131e+00,9.793832343961632603e+00
3.522702560620351400e-06,-1.570011731755703854e+00,9.793835866014291014e+00
-4.107774590987301838e-06,-1.570008870533041279e+00,9.793836579965164546e+00
-1.438480267449290803e-06,-1.570012646922201771e+00,9.793838475761145190e+00
-4.745954662422214618e-06,-1.570014287102869055e+00,9.793836680923009297e+00
5.451928013324269969e-08,-1.570019237009935287e+00,9.793835253346545144e+00
-6.267594079038183553e-06,-1.570009335847487364e+00,9.793839460006136477e+00
-1.593043588726241783e-06,-1.570019946267087185e+00,9.793848040548438050e+00
-2.409347822623212431e-07,-1.570015186147740494e+00,9.793841905831994765e+00
3.304020091200987129e-06,-1.570021386776027539e+00,9.793840599041557127e+00
-9.353717366117416353e-07,-1.570019725094484953e+00,9.793839565595790830e+00
-2.074639813791703389e-06,-1.570018098616666302e+00,9.793843019396197391e+00
-3.589907382651386993e-06,-1.570013075071678754e+00,9.793853532294425790e+00
-2.512528215873543857e-06,-1.570016467716601527e+00,9.793848405889660214e+00
1.873501512811973109e-06,-1.570010245915878455e+00,9.793848348305456142e+00
-6.953353495155736923e-06,-1.570017912182141817e+00,9.793853376654508835e+00
2.739209347259115944e-06,-1.570012933223119189e+00,9.793849576494002562e+00
-1.671761326362036627e-06,-1.570019317947451309e+00,9.793850565570329181e+00
-3.537493535442323106e-06,-1.570014575737561646e+00,9.793858118528474321e+00
-1.417938393800044056e-06,-1.570012150348077951e+00,9.793862302879208670e+00
1.009332419145873925e-05,-1.570018815083456643e+00,9.793860418702294623e+00
-1.249920125751862421e-05,-1.570017574078568012e+00,9.793858640660813464e+00
-1.346181071510764224e-06,-1.570016064653331433e+00,9.793863634237293780e+00
-3.523924358168620859e-06,-1.570012699229570208e+00,9.793855206473821795e+00
4.266558140407422986e-06,-1.570018933000601802e+00,9.793858308733581097e+00
2.531559107074739681e-06,-1.570019350139562286e+00,9.793860581471529159e+00
-2.656851718875837900e-06,-1.570017686178452943e+00,9.793864179230423517e+00
-4.879859822694714625e-07,-1.570020043590753644e+00,9.793864326019017241e+00
4.852362013225736469e-06,-1.570015803282785560e+00,9.793867527198589329e+00
-3.279765596789468435e-07,-1.570015291020411485e+00,9.793878501339811748e+00
3.981459987017534142e-06,-1.570022998650700163e+00,9.793873781902460607e+00
2.532572275347615565e-06,-1.570016818840514139e+00,9.793871548034658758e+00
1.231090262929120596e-06,-1.570023317436202381e+00,9.793867573988270792e+00
3.844695180863648023e-06,-1.570013894018179812e+00,9.793879642787802098e+00
-1.677809166664867347e-06,-1.570015122454384571e+00,9.793878245474738620e+00
2.028229638589097500e-06,-1.570013459717320092e+00,9.793873712241182972e+00
-2.955672705154722335e-06,-1.570006898012778374e+00,9.793866431421037078e+00
-6.255951173643235681e-06,-1.570020602090949291e+00,9.793874766293411582e+00
-2.392864285978696947e-06,-1.570022088127081439e+00,9.793872042442037795e+00
-7.363317304688237949e-07,-1.570015989985614979e+00,9.793880102326340875e+00
-3.523242362481180075e-06,-1.570017794655614196e+00,9.793880536050101782e+00
8.463942035242710187e-06,-1.570005154671833214e+00,9.793884609551605891e+00
-6.399047328080600060e-06,-1.570018448848212289e+00,9.793882145838544773e+00
6.207627625004115118e-06,-1.570012442136727859e+00,9.793889111836756811e+00
-2.541066922552830222e-06,-1.570010808541213665e+00,9.793889579154441805e+00
3.782444992799129141e-06,-1.570022286685000878e+00,9.793888697128176446e+00
-1.974375423257776685e-06,-1.570018533637785652e+00,9.793895542729703863e+00
-6.146252370967330410e-07,-1.570008697414990717e+00,9.793897449829419344e+00
4.891290347169164869e-07,-1.570018017069245264e+00,9.793892300519189575e+00
4.900550601597215179e-07,-1.570014682368013004e+00,9.793890457800591420e+00
4.261468967392315552e-06,-1.570018890599713668e+00,9.793899446505065498e+00
-3.089970990527442829e-06,-1.570018221125975888e+00,9.793891757868500747e+00
-9.881180784424178120e-06,-1.570014038421731817e+00,9.793895742674568083e+00
-1.229084879874774873e-06,-1.570014345007273660e+00,9.793896217188294173e+00
8.320228645898179145e-07,-1.570012426080569012e+00,9.793899609181419663e+00
2.853688114437459661e-06,-1.570017532276702710e+00,9.793902872695326778e+00
-1.967048898467419992e-08,-1.570020126407116301e+00,9.793905707692479368e+00
-2.291080410532034792e-06,-1.570005926940856389e+00,9.793908199306880391e+00
2.660017242025458866e-06,-1.570017890265763771e+00,9.793899732457555629e+00
1.281073644639950000e-05,-1.570011666013497953e+00,9.793907163906908409e+00
2.798052533729081513e-06,-1.570020746750911300e+00,9.793908246580505406e+00
3.394503819469980306e-06,-1.570015299116517493e+00,9.793914900892808362e+00
-4.816802216321488580e-06,-1.570014925058797584e+00,9.793910890207467190e+00
-3.489975294483178929e-06,-1.570018032094528504e+00,9.793912318608908762e+00
-7.073558004302946460e-06,-1.570011040455511209e+00,9.793915627064398777e+00
-2.399541525625495111e-06,-1.570016529968694785e+00,9.793920598485760465e+00
5.770562825454329417e-06,-1.570024489602770856e+00,9.793917022666938976e+00
-4.024889375448124786e-06,-1.570013799952891809e+00,9.793914725841247559e+00
-1.812249210470780262e-06,-1.570017130208397393e+00,9.793918917064257101e+00
2.393156912379432848e-06,-1.570024535632593699e+00,9.793916724314025046e+00
-1.302956652099285755e-06,-1.570012023949223456e+00,9.793914616852166688e+00
1.005756264530549596e-06,-1.570024588546925060e+00,9.793916437800596952e+00
1.993310492958423694e-06,-1.570021287662753284e+00,9.793921456069604403e+00
5.165410185410812374e-06,-1.570015250932148332e+00,9.793925904135733163e+00
1.230115145701905575e-06,-1.570012378570801559e+00,9.793922044194355081e+00
-2.443491704718955596e-06,-1.570012903938371895e+00,9.793933663482530250e+00
-3.975795270623193592e-06,-1.570018403460568202e+00,9.793931730744914077e+00
3.671884046214281006e-06,-1.570020450322472172e+00,9.793930617460315347e+00
-2.521008380870314276e-07,-1.570017285122410344e+00,9.793937762871962605e+00
-5.556719174848693110e-06,-1.570009454745953770e+00,9.793935088032684533e+00
8.349627463983238233e-06,-1.570019253349029809e+00,9.793926173845767025e+00
-2.508169726287126015e-06,-1.570021012604747357e+00,9.793944560611997474e+00
2.475142362581571087e-06,-1.570019678583384648e+00,9.793930019033435741e+00
-2.573616993911992258e-06,-1.570016973296985086e+00,9.793938705107603226e+00
2.290767349064210692e-07,-1.570018202935272278e+00,9.793940409471881381e+00
4.672719051794324556e-06,-1.570020810426284497e+00,9.793933604338175059e+00
-7.432695562313935609e-07,-1.570018286365439275e+00,9.793949709050153274e+00
4.843433322507512960e-06,-1.570015864379153081e+00,9.793950251660930917e+00
2.455748716972551111e-06,-1.570022072258036028e+00,9.793949979756385815e+00
7.558639441620553453e-06,-1.570019436183851536e+00,9.793945444052598148e+00
-9.659666096840481855e-07,-1.570019157852952096e+00,9.793948954536265461e+00
3.126438799436186042e-06,-1.570025248735946288e+00,9.793948215830138082e+00
5.874294219301869962e-06,-1.570009419428902486e+00,9.793948496308860996e+00
-5.329752617161353583e-06,-1.570022612724453648e+00,9.793956400391364170e+00
-8.280445600224765892e-06,-1.570010442591830868e+00,9.793956964926717745e+00
9.382450048713044212e-07,-1.570020005315573064e+00,9.793943765518875466e+00
-4.547416111982722933e-06,-1.570018977688560025e+00,9.793957283063056352e+00
1.732286069547455701e-06,-1.570018519161745285e+00,9.793965881166522891e+00
1.903317196577030785e-06,-1.570022406847576102e+00,9.793961407157190990e+00
8.108189031777160622e-06,-1.570022623698124731e+00,9.793951317104747645e+00
-2.868066559661024132e-06,-1.570014939283108424e+00,9.793967212097065556e+00
-1.283850225264917209e-05,-1.570012333570953933e+00,9.793964575897073033e+00
4.394590260611003891e-06,-1.570015774287740529e+00,9.793964687096153199e+00
4.058569007016970096e-07,-1.570016841425156962e+00,9.793963083754304577e+00
1.052290083598466038e-06,-1.570026613840705298e+00,9.793971400708988639e+00
-2.824510282998719232e-06,-1.570015131939473951e+00,9.793964030521722819e+00
-4.175413206952729657e-06,-1.570020123150012825e+00,9.793965507651053670e+00
2.014052221062819903e-06,-1.570022068813285987e+00,9.793972870952970311e+00
3.609472249339706633e-07,-1.570017476214170093e+00,9.793972089467557041e+00
3.648921055356546398e-06,-1.570020507266112864e+00,9.793975616878910273e+00
-1.809759237365992625e-06,-1.570020067221545190e+00,9.793977522223741516e+00
-3.014199817750657912e-06,-1.570021416992173124e+00,9.793979404472237249e+00
-2.690458025232701234e-07,-1.570023749112367861e+00,9.793981938562257739e+00
-4.373880836425384290e-06,-1.570014323645415155e+00,9.793982959165152380e+00
9.477864643634238885e-06,-1.570013912214319296e+00,9.793974022101028964e+00
3.344511175249913157e-06,-1.570019594089472337e+00,9.793983095896361846e+00
-1.945438087969873719e-06,-1.570021056028863882e+00,9.793982473509997178e+00
1.060867976052497156e-06,-1.570020495384158110e+00,9.793987093797264620e+00
5.322605819746920126e-06,-1.570020283879901335e+00,9.793991705172732765e+00
-3.894351816046723242e-06,-1.570018658758826069e+00,9.793990639522183628e+00
-7.239596773316367808e-06,-1.570019985743326796e+00,9.793995825178082981e+00
7.921032871314069622e-07,-1.570008773825835480e+00,9.793999568858779980e+00
-5.005985344099542676e-06,-1.570016193598466669e+00,9.793994057853032231e+00
1.754839602983896737e-06,-1.570018420797272496e+00,9.793990918519815736e+00
-3.537135424303371360e-06,-1.570019183564037357e+00,9.793994056651740721e+00
-6.638275680622390824e-07,-1.570010871595830526e+00,9.794002234916613148e+00
5.416414729123578608e-06,-1.570011416724887088e+00,9.794001606369505453e+00
-2.916207713138734310e-06,-1.570011723419982408e+00,9.794000428657193780e+00
2.267999336107611148e-06,-1.570022538896067132e+00,9.794005004844292372e+00
3.261798521686966464e-06,-1.570019799478370448e+00,9.794006147149463715e+00
9.622386093060672052e-08,-1.570013022369691758e+00,9.794003831626994838e+00
9.133854874450344878e-06,-1.570019700273594943e+00,9.794006277200836053e+00
-5.223083021135257763e-06,-1.570016392912321646e+00,9.794000890915492974e+00
5.097812300281541752e-06,-1.570016174044850166e+00,9.794001907937902374e+00
-3.741341756772356756e-06,-1.570010614186049480e+00,9.794004141676149189e+00
-3.172546662854562836e-06,-1.570017810022627414e+00,9.794010234582286145e+00
4.553158449189944201e-07,-1.570014513592056904e+00,9.794000621181089272e+00
1.332261545818751880e-06,-1.570017809140587195e+00,9.794017432866317208e+00
-6.598238269114880964e-06,-1.570022925562560401e+00,9.794014855769836103e+00
1.511193522705156661e-06,-1.570015665134790517e+00,9.794017787234837513e+00
2.394771374225317597e-06,-1.570015171133142040e+00,9.794017188736544810e+00
1.096292659358720719e-06,-1.570018226300824660e+00,9.794023251651376327e+00
3.922030521779019549e-06,-1.570017032526384915e+00,9.794021131270907787e+00
5.073616939798665400e-06,-1.570018899854753069e+00,9.794027675272619859e+00
1.214170685996548896e-06,-1.570018530792181899e+00,9.794029131623080531e+00
2.064281278522887768e-06,-1.570014142409338120e+00,9.794017582950361955e+00
-2.117613592454477250e-06,-1.570019808152033569e+00,9.794031433473001869e+00
2.317496193704786787e-06,-1.570019709508686967e+00,9.794029162967406776e+00
-3.705640222581527656e-06,-1.570014999071997597e+00,9.794033148009434697e+00
1.076912214198877851e-05,-1.570021817433570721e+00,9.794029764249387426e+00
1.606068722209164838e-06,-1.570018760996799045e+00,9.794029889190976945e+00
7.097802538555117585e-07,-1.570021965193315827e+00,9.794033098137040483e+00
6.868245329846807583e-07,-1.570021317835634589e+00,9.794035748541473296e+00
2.737481534177290115e-07,-1.570018964543047346e+00,9.794042885322971514e+00
6.515479467166418971e-06,-1.570020883828855407e+00,9.794039478215838201e+00
5.207639914604453368e-06,-1.570019308182730056e+00,9.794040291080124305e+00
-1.340984123072661724e-06,-1.570017270426400380e+00,9.794045056504725011e+00
4.319484673093939012e-06,-1.570012648172206537e+00,9.794042578743001215e+00
-6.848712213190664054e-06,-1.570019318299816113e+00,9.794045900344544364e+00
5.570656474140544957e-06,-1.570021424781541164e+00,9.794052096321614442e+00
-1.548572929773882586e-06,-1.570019312679365120e+00,9.794053109636653431e+00
6.460454731448932994e-06,-1.570011866459337657e+00,9.794045096784957494e+00
-2.687560841935903690e-06,-1.570019233292722083e+00,9.794045137068398077e+00
-4.290432139388225106e-06,-1.570022200857638328e+00,9.794052872639781526e+00
3.002171302239633357e-06,-1.570020248170389321e+00,9.794057005548431505e+00
-1.654104977405542987e-06,-1.570011749398106948e+00,9.794050573067632826e+00
