gyro_x (deg/s),gyro_y (deg/s),gyro_z (deg/s)
-2.751144484518431199e-04,3.469325666889185467e-03,2.190281787838335888e-03
3.884687948360348209e-04,3.277020905949540926e-03,1.857771824877490563e-03
-7.349207701212727602e-04,3.792081085962714475e-03,2.563685712702074015e-03
-3.301321827154774760e-04,3.667864587481734114e-03,2.750161159546075235e-03
7.087934915838186428e-05,3.667696456652222350e-03,2.713248611861366830e-03
-4.887605175526180340e-04,3.265075306223803354e-03,2.186428932759615015e-03
1.220125808090398434e-04,3.187100169976358078e-03,2.590067587542121876e-03
1.452320713308736567e-04,3.905349539905221459e-03,2.729825981866672562e-03
-5.123853697239601820e-04,3.454379504895992246e-03,2.595897461256073489e-03
5.268627222392927977e-04,3.592800989183165660e-03,2.425735233836703517e-03
-6.375558123775839758e-04,3.954954569980006010e-03,1.680336342885894963e-03
-7.340592643001767016e-04,3.115698863010698573e-03,2.263344296674632376e-03
1.289720083901346372e-05,3.759491676942236429e-03,2.409588600563760882e-03
3.580663857703804127e-04,3.711020042297692896e-03,2.044249071937934929e-03
2.651589134682145197e-04,3.951185878710154406e-03,2.356863193349868942e-03
-4.250120080552705916e-04,3.868464657548281293e-03,2.263760348184585842e-03
4.971264566632745883e-05,3.888776852296324266e-03,2.828696774767484445e-03
3.904238597634111530e-05,3.642792576067011966e-03,2.707706888678525128e-03
-2.331861531713284310e-04,3.587137707484493523e-03,2.371914662677924394e-03
-2.352642244934351288e-04,3.773585955752232438e-03,2.107866168803985019e-03
1.711271316155041702e-04,3.365788200565211340e-03,2.924066413847910707e-03
-3.372805377115014333e-04,3.563825848503630704e-03,2.225545711806943897e-03
-1.470590555559461580e-04,3.453556705854394018e-03,2.327592844518007464e-03
3.914770144270038820e-05,3.209060918288339156e-03,2.116957699231552907e-03
-2.272812437187949773e-04,3.670253895419629993e-03,2.024303647633966721e-03
1.439136365154452904e-05,3.385847875122123627e-03,2.108724714408886404e-03
-1.501203824689667412e-04,4.129563003029659146e-03,2.687788919709695971e-03
2.153174920480060441e-04,3.287653685733993650e-03,2.846307729191995158e-03
7.945496842355117474e-06,3.722601432710706103e-03,2.206474137067929425e-03
-4.558410935342122917e-04,3.421193300130872302e-03,2.239684320762198085e-03
-3.180876439111649944e-04,3.352987362219306613e-03,2.065944652631758211e-03
-6.419346432650147516e-04,3.595923800118620665e-03,1.673016064141269596e-03
6.885914349211879389e-04,4.286861971714697739e-03,1.956449908237442581e-03
1.094597806615808133e-04,3.620056078422685415e-03,2.485642253151798282e-03
-3.913418604518947050e-04,3.607625825696638821e-03,2.797317107872379985e-03
8.266557428074468512e-05,3.622189226866750697e-03,2.418602235928857778e-03
5.540454298785401797e-04,3.380219157752109398e-03,2.152140339348402546e-03
-2.679255496281075875e-04,3.683666366007179796e-03,2.519493711750885045e-03
2.498086905592194172e-04,3.681807133732740208e-03,2.148856062995860034e-03
4.605083900703242834e-04,3.595567072426496258e-03,2.407921115214715739e-03
-4.956768585222272837e-04,3.385961671300726211e-03,2.743552530313552850e-03
-1.362240274767158917e-04,3.339814063785910992e-03,1.792415418133978073e-03
-3.067070062835509258e-05,3.018793411701351913e-03,1.934520457027390878e-03
-3.799168827828024240e-04,3.490476057938380824e-03,1.875120714189928203e-03
-1.988078123815241482e-04,3.590490086233558489e-03,1.938623001853019036e-03
-1.992737952523149561e-04,3.462544966774456622e-03,1.798021486540658798e-03
-2.698694608170301517e-04,3.727646688455135172e-03,2.378895987611835856e-03
5.266373963471738780e-04,3.383874791592638917e-03,2.027760006091306258e-03
7.884783539033349232e-04,3.584638426174610593e-03,2.540336233223399603e-03
2.478154485310939240e-05,3.476118779532514757e-03,2.252828310314840786e-03
-4.085198860847302034e-04,3.293278627448184299e-03,2.385741282751574575e-03
-4.357984953074203944e-04,3.954747222890830569e-03,2.609860449659643158e-03
1.784014150204337248e-04,3.927815164046170177e-03,2.488799717957833248e-03
-3.813429745914458579e-04,2.722570784636732868e-03,1.799167885438254788e-03
2.369486463448963417e-04,3.350044416781643424e-03,2.495501281606372565e-03
7.346516011415193319e-05,3.482155063731645628e-03,2.347396134021993448e-03
-1.005112301607585757e-04,3.798922137974363854e-03,2.160487528875610838e-03
4.795877884792964629e-04,3.214382796292217931e-03,2.371171624837589264e-03
-5.125441208290800084e-04,3.992802099600215385e-03,2.491675675151814283e-03
3.020940191204734182e-04,3.473090865125816763e-03,2.195504657193250372e-03
-9.581516791809501366e-05,3.675542736638282449e-03,2.863927698501536178e-03
2.182588986653001984e-04,3.599894457084420844e-03,1.916432547101586288e-03
-3.342004158844891649e-04,3.707973399102012981e-03,2.695851532708024370e-03
-1.232570808243886476e-04,3.635400755581904772e-03,1.907511793018129218e-03
-7.581525145842233238e-04,3.474005085259907269e-03,2.409433724999555070e-03
-2.109914261054661780e-05,4.179554585049419756e-03,2.583420739735324111e-03
1.691606948207040852e-05,3.689975471077065229e-03,2.537184796036336294e-03
-8.637835952962463456e-04,3.127387929836669168e-03,2.610281557304159304e-03
-3.770144528184105406e-04,3.911394051576040642e-03,2.625297222866475235e-03
-3.284783876356732837e-05,3.574198979187001666e-03,2.168111183906980266e-03
-7.108054664346437118e-05,4.047792404677200313e-03,2.707596892485310096e-03
5.295651915565812145e-04,3.497596732446294106e-03,2.291206576502202805e-03
5.124624524092702979e-04,3.116364714546316153e-03,2.258380838198534822e-03
-5.502373244479655750e-05,3.459864354427783992e-03,2.494902883845293191e-03
-2.288944311977335192e-04,3.493845852265024809e-03,1.637499819407852277e-03
2.468382805526122805e-05,3.556697629107614684e-03,1.770505382836772609e-03
-6.202505059006395557e-04,3.773652691479888709e-03,2.397578020468849741e-03
-2.427007666312442898e-04,3.367194451744761827e-03,2.462293500586578213e-03
2.779927972188678698e-04,3.448503468206888956e-03,2.332081069243564179e-03
-8.367316710301721109e-05,3.485357005654237620e-03,2.072347573581490455e-03
-2.594110920189650663e-04,4.455068244925418017e-03,2.430220759928135472e-03
-1.666642411987376748e-04,3.341920018446907590e-03,2.118487310105968309e-03
7.719518418409586737e-05,3.440060759225479787e-03,2.338189214245624346e-03
-2.883836978255996798e-04,3.733402441720653792e-03,1.872101563971284317e-03
3.228035878452890808e-04,3.109368139726180220e-03,2.201711821402171400e-03
4.965709047583101530e-04,3.519763580307691628e-03,2.439615567292580545e-03
2.784881551999858051e-04,3.936591654134413872e-03,2.578910166057782338e-03
-3.145415955800711375e-05,3.219725227106364201e-03,2.339569553371906134e-03
-1.923613183980237636e-04,3.114227433151731724e-03,2.837291417957704068e-03
-1.695438743187003649e-04,4.088677375150124270e-03,2.175740099810972213e-03
6.748084898888284449e-04,4.359730993292916697e-03,2.531164407028542625e-03
-4.053417070567804010e-04,3.436878435963805836e-03,2.103153178570344676e-03
-1.755430055124755227e-04,4.004459797994948042e-03,2.265745671606896831e-03
-4.167226130695555293e-04,3.323092266641987716e-03,2.549463050884320705e-03
-1.140256250522674112e-04,3.611799985092464371e-03,1.470773416731838146e-03
3.195491492114308895e-04,3.911680672251857324e-03,2.322560452468795059e-03
-3.754326755823677512e-04,3.452068037761695223e-03,2.028569022024962615e-03
-3.606780516638310552e-04,3.688356501933234832e-03,2.050355434267596942e-03
6.499316337175134375e-04,3.534630456463458588e-03,2.081361833404044882e-03
-9.989679338274724265e-05,3.216777248164792626e-03,1.503373975106890971e-03
1.118674297005694496e-05,3.567631512078894406e-03,2.178510138675666258e-03
1.678068602178939858e-04,3.558738988333779493e-03,2.065733277898352052e-03
4.235427628245595462e-04,3.631800053868866531e-03,2.140655345696564679e-03
-2.842371389681277592e-04,3.565638294322155070e-03,2.444365742614593509e-03
4.461707877436787918e-04,3.629880252582090485e-03,2.374890124384451684e-03
-1.188488890075664264e-04,3.140758624661208181e-03,2.616573368746485245e-03
4.557351672731765110e-04,3.522671698261946316e-03,2.631537794041947410e-03
1.557379382042573966e-04,3.458204260367979659e-03,2.182767482934082435e-03
-1.241255509302331713e-05,3.134379606321399843e-03,1.944339342272477077e-03
4.490387956625178792e-04,3.020606408453744250e-03,2.051583916581197712e-03
-1.603710571320132112e-05,3.966665288476771412e-03,1.780700019870339393e-03
2.587009331046665589e-04,3.397089097102075350e-03,2.317748453318096286e-03
5.681460505778046987e-04,3.543407702807712355e-03,2.615636384513037472e-03
-3.948335838169779758e-04,3.538431122417049889e-03,2.171152423167009224e-03
-1.655408983421570283e-04,3.565742118757661040e-03,1.965932418985227251e-03
-8.848572565884619461e-05,3.351029038285717639e-03,2.769982085161631913e-03
3.111911436241722570e-05,2.940143514299854537e-03,2.063046277282992811e-03
-4.699639401855572015e-05,3.509142874144935073e-03,2.289210822494121712e-03
-3.132534067340146233e-04,3.500762410208053000e-03,1.729148175981310700e-03
-9.350386720481621439e-04,3.903623564782482229e-03,2.034714208448099894e-03
-1.004760523177697070e-03,4.181400696890609503e-03,2.447932391026209995e-03
-1.602166550109224261e-04,4.158833992460903191e-03,2.415092713602071291e-03
-4.291088468308444735e-04,3.679974690608153916e-03,2.219419329649802066e-03
6.979674316501109123e-05,2.847012958317906694e-03,2.488768409125543483e-03
1.570768410168794276e-04,3.737177750710869717e-03,2.651906213108085313e-03
1.501637787665455865e-04,3.908251305525370367e-03,2.429953807289051033e-03
6.629919670235893871e-04,3.946746701777031560e-03,2.513598373734644929e-03
-6.780304102116175614e-05,3.512725724912118142e-03,1.886068386094975511e-03
-9.861399610415220508e-05,4.077875242844817075e-03,1.660268954308596022e-03
4.370112347935151364e-05,3.775018739799330947e-03,2.941001378026627307e-03
1.322512607657063961e-04,3.688957931545470623e-03,1.727303628555065329e-03
3.355273008309519068e-04,3.712600453135223282e-03,2.153471607067784181e-03
5.674780278671663148e-04,3.391596394713465665e-03,2.552391762309606273e-03
2.646072064305817579e-04,3.762116988900580591e-03,2.053604034408277115e-03
1.451070394855292448e-04,3.388905134759546620e-03,2.146375306982268444e-03
5.203394452506026431e-04,3.885592938395027261e-03,2.292807499326763102e-03
-3.574190730211983420e-04,3.365178623739866100e-03,1.911205426144644334e-03
1.350281477674415752e-04,3.836501586717014356e-03,1.608226154653488510e-03
1.831238262177845792e-04,3.588831764801377836e-03,2.722037158412638977e-03
3.575682879696114838e-04,3.126979743285807252e-03,2.698008930369509735e-03
3.274329438445376878e-04,3.051145159189264100e-03,2.604977715580286072e-03
-3.319621246777806770e-04,4.070040566138695415e-03,2.179848226057733585e-03
5.587731676533443575e-05,3.298505732499254581e-03,1.602924075053963841e-03
-5.291479291776056198e-04,4.333353149649896499e-03,1.968491288072307058e-03
-2.882657562204426016e-05,3.466214222437334624e-03,2.192096561140539131e-03
3.034652858577706097e-04,3.852048336473466120e-03,2.275989837736332091e-03
1.878186430693914780e-06,3.586416879042497469e-03,1.995563663375801017e-03
-6.384879093175860733e-05,3.559433844488714502e-03,2.139418033994172630e-03
-3.368584591118507971e-04,3.689025716146143111e-03,1.963581919225632511e-03
-1.655812189537963770e-04,3.855687245457784310e-03,2.003049046538524572e-03
7.454787466127246276e-05,4.184981299477740294e-03,2.502049891551642088e-03
-2.685255123840895653e-04,3.420443960141736090e-03,2.340993669183430870e-03
5.595136313164412708e-04,3.981426538287865385e-03,1.935534420746872278e-03
5.210966250678156220e-04,3.182836802098462387e-03,2.617453324031820527e-03
1.006739817353408383e-04,3.920128007878199983e-03,2.374403728265936028e-03
8.169613419443868142e-05,4.245777075598832807e-03,2.366718489738101495e-03
7.081443779553447167e-04,3.382215871564606558e-03,2.246356920967413576e-03
1.422767459641825327e-04,3.700690948347496855e-03,2.438804828767460187e-03
6.143461965117196465e-04,3.881431147028894125e-03,2.911172852395665835e-03
-4.483304171633838728e-05,3.297080998532025704e-03,2.254887578361429619e-03
8.108829817456177091e-04,3.734039579273414153e-03,1.694066491559616727e-03
-4.946499233685114263e-04,3.794169404302148631e-03,2.467326954923506309e-03
2.261012038828954390e-04,3.644881613323076777e-03,2.095960491041846084e-03
6.774203256869152376e-04,4.216822928789974029e-03,2.134451775928866615e-03
-2.137610713842611886e-04,3.850376360006842018e-03,2.687314289719985091e-03
2.698214668320842238e-04,3.029676144883411502e-03,2.613908269820798373e-03
4.380650296696291814e-04,3.755673831627997540e-03,3.090639193497444256e-03
5.864267438491827727e-06,4.267833498586032226e-03,2.922788916298056042e-03
1.741897513327152495e-04,3.620115069913510016e-03,2.491140394303813753e-03
4.371869291404340235e-04,3.413079324216523706e-03,2.363046112175715488e-03
-1.981879031912604208e-04,3.051772054256394421e-03,2.163427346591369205e-03
1.199587307948032721e-04,3.583425276886387841e-03,2.034217580381593102e-03
2.310815496829693406e-04,3.667817043035741936e-03,2.033183162909449858e-03
2.474768998484693926e-04,3.578836464543887468e-03,1.979012072968987235e-03
-7.914904992417644378e-05,3.878196667867323498e-03,2.264684735176263931e-03
-3.616586709393754544e-04,3.866951925665102711e-03,2.467268606937720460e-03
4.050071669090479776e-04,4.344822555063528047e-03,2.683141672304008903e-03
-6.582925236017215696e-05,4.185037315871117415e-03,2.661773366069350270e-03
-4.171227176068549830e-05,3.724460776560792850e-03,2.160350955369967716e-03
2.438336974822250197e-04,3.438838356922256558e-03,2.090971682822884235e-03
-1.883716939726096324e-04,3.289687697181059751e-03,2.205190522886454722e-03
-1.373402450360771050e-04,4.115390841673964052e-03,2.499764893394389956e-03
1.102411655716220904e-04,3.548428839749125444e-03,2.236285459672210634e-03
3.555745062665383429e-04,4.082628333462621703e-03,2.368192535291108181e-03
-3.228404447051204580e-04,4.272376634108572546e-03,2.840305002050980479e-03
4.046216036213688997e-04,3.548573447425951936e-03,2.230034450889543680e-03
-8.922677163659119845e-04,3.462550096071148435e-03,2.168209545258226959e-03
-1.259563231300923024e-04,3.173564926827035070e-03,2.557288917381924341e-03
-4.970784428316735388e-04,3.951444268326059425e-03,2.154153238873258210e-03
-9.896941974057165304e-05,3.959373479701769165e-03,1.481033324431545303e-03
-9.934105614480814579e-05,3.713248608548192897e-03,2.167310160250268333e-03
4.519179436656003902e-04,3.813825826821109696e-03,2.596453394222991359e-03
-3.507143416575999066e-04,3.980554477411494749e-03,2.203416462166484478e-03
-3.853371974821598301e-04,3.177585700460994894e-03,2.825623212385262352e-03
3.630384383256095217e-04,3.607624756203367533e-03,2.008073106912045599e-03
5.917740256709380208e-04,4.040748609588800701e-03,2.456785501099861217e-03
1.790506049609239816e-04,3.251867027918752245e-03,2.320459142853155497e-03
9.712388533365797297e-05,3.455754386131945546e-03,2.370835041463017438e-03
1.739823512702201542e-06,3.943712857045044567e-03,1.498583285221007132e-03
-2.334276960589840239e-04,3.867776970338643924e-03,2.652916873518557355e-03
-6.848904416667630146e-04,3.501381946279976710e-03,2.292585261405807352e-03
-4.100786957240057221e-04,3.382902637529583076e-03,2.269032371749254030e-03
2.860765961949276450e-04,3.492120280139262515e-03,1.957541255932898280e-03
-7.866239673559420609e-05,3.965505833693914496e-03,2.321059707608876758e-03
3.829257939760929313e-04,3.541442358804598126e-03,2.694006213440877043e-03
3.318949189387417824e-04,4.453489899098344966e-03,2.497365449988096786e-03
-1.328854430686621756e-04,3.082150742728442631e-03,2.598558104772982335e-03
-3.069089602822288937e-04,2.943463983222717982e-03,2.357147617663125916e-03
2.042225175738140725e-04,4.037747792150797599e-03,2.223631862576274081e-03
9.277795293167865774e-05,3.574611107881767863e-03,2.514648935571930661e-03
3.123168967295642299e-04,3.352576113367472434e-03,1.894280022654278332e-03
2.809135633439536648e-04,4.011045343316111192e-03,1.552644344771871151e-03
1.493414003920302054e-04,4.093962124718763564e-03,2.292531419486570909e-03
-8.686343864819708212e-05,3.408091662947350473e-03,2.326788620775539253e-03
-3.339067373282844447e-04,3.931841076997447636e-03,2.022927425716410793e-03
3.307501179772117566e-04,4.062423780120176693e-03,2.320720299955755621e-03
6.879288044624594233e-06,3.575854082142084205e-03,2.154764376389214919e-03
1.515541846818567278e-04,3.320449271271308424e-03,2.432132223438878554e-03
3.951772109786082693e-05,3.717300201818938069e-03,1.954842293057859701e-03
4.367341864626146322e-05,3.913758628745307375e-03,2.040702077962701106e-03
2.977792155923761146e-04,3.196872702385892412e-03,2.216081808172049635e-03
-1.581167116329454446e-04,3.523824969541218197e-03,1.655984010243509268e-03
-4.984017176493587631e-04,3.903535223579992705e-03,2.569095457393234371e-03
4.862588024939491055e-04,3.171411917018278001e-03,2.916398502279966484e-03
3.264556630660479406e-04,3.222529695358295702e-03,2.299531364213412091e-03
-5.799860410784086866e-05,3.768233614430558254e-03,1.654217127038109560e-03
3.081094656822309366e-04,3.648032054820495203e-03,2.230106657533809014e-03
4.464559122567521342e-04,3.610705427624506195e-03,2.494898126633541928e-03
1.518457314965135157e-04,3.579600423626991181e-03,1.994248959134969478e-03
2.134443933912636814e-04,3.617119562683017604e-03,2.068170005163195643e-03
3.812984407928493992e-04,3.672213850243272182e-03,2.046603246492966367e-03
1.139774228421078413e-04,3.455430566455151235e-03,1.648343897507273392e-03
2.449857724725008684e-04,3.242938355247646301e-03,2.168698713273260487e-03
-4.305769384211870091e-04,3.638297428427651834e-03,2.144932597473355081e-03
-2.152291379498961848e-04,3.624093990205705731e-03,2.733924388404254495e-03
2.281518059023574939e-04,3.349546979058110746e-03,1.979902729237099056e-03
9.709873363573309367e-05,3.749895800866972183e-03,1.862793664217507125e-03
1.820828121252368202e-04,3.583297404048902454e-03,1.676723645977114653e-03
7.270393428407855626e-04,3.474533020593769013e-03,2.050592647262256332e-03
-1.664883950771486786e-05,4.055910879943090859e-03,2.478410934832969183e-03
9.901491626827929192e-05,3.755410347872731314e-03,1.744639958817050798e-03
-2.984716375643810867e-04,3.251944394959896487e-03,2.384617710064643702e-03
2.959538349303141263e-04,3.676842830471717481e-03,1.777347774817492369e-03
1.746183785386911161e-04,3.406503416435769076e-03,2.130332823173475103e-03
2.026709666715676447e-04,3.531382639660765772e-03,2.256042229977472165e-03
-2.343403539328472865e-04,3.327420443584661828e-03,2.186998513294167047e-03
2.245524780852203864e-05,3.960333505711678172e-03,2.401391519716593662e-03
-2.339918265696579506e-04,3.645668172751497915e-03,2.192696518513951882e-03
6.214691379299676680e-05,3.268922790970361317e-03,2.294095769561073188e-03
-4.679574116502398478e-04,3.582563866646237827e-03,2.892610722321596953e-03
2.765177254248803716e-04,3.647426663430018874e-03,2.480192422184741147e-03
-6.583226539575038477e-04,3.384099686699261911e-03,2.335291358423863262e-03
-7.075852459643584683e-05,3.784912622410861651e-03,1.780734301304969435e-03
-5.242252778857692079e-04,3.656430065079871623e-03,2.814698215314414328e-03
-1.016622090412264032e-04,3.864498033239580424e-03,2.727156594551926466e-03
5.114634452615062464e-04,3.627565455021568731e-03,2.390460627545553350e-03
-3.822446779520350139e-04,3.717220226597930770e-03,2.041580619789606227e-03
-2.240675510289664822e-04,4.442375842732775200e-03,2.159639069136126167e-03
-8.533436053116734573e-05,3.699566582893803156e-03,2.140467356231844000e-03
-3.063647557975180454e-04,3.807044652496369315e-03,2.806811897854942072e-03
-1.587436095859201611e-04,3.934368769194371111e-03,2.541783507414709792e-03
3.992661469833400588e-05,3.616645893209080413e-03,2.485170711347929867e-03
-1.057775293940972042e-04,3.683388840832690046e-03,1.909185521830388237e-03
3.229473500952409070e-04,3.440835525148497331e-03,2.299003812516465118e-03
6.682784220433506941e-05,3.535773680581964350e-03,3.102127186140518460e-03
-4.131058773733661078e-04,3.352180901607249106e-03,1.717170429411826477e-03
9.519947772346805121e-05,3.561208123932073106e-03,2.183977745502861407e-03
-4.396325719753251980e-04,3.560523706771368761e-03,2.185232690253967325e-03
-3.909477326995911537e-04,3.621450033833258260e-03,2.390351157940635591e-03
-5.881121113879725316e-04,3.838593128902858826e-03,2.577847449148762318e-03
-2.214740980635354151e-04,3.270127227757705767e-03,1.897977599421704457e-03
-8.155325917030453091e-05,3.358029056731704192e-03,2.646696030637167314e-03
-1.584614807370147440e-04,3.530069656993188414e-03,1.620831303793962520e-03
-2.566286026842723987e-04,2.981254059303079396e-03,2.349787198989871338e-03
-4.247672012109644422e-04,3.207395089890084563e-03,1.819671915812883347e-03
-5.404068001862723480e-05,3.253502876972294827e-03,2.179030411535635633e-03
1.728524833682861569e-04,3.342638665079802202e-03,1.867230261547524629e-03
-2.870070711677447507e-04,3.840890734728677220e-03,2.352395871561667202e-03
-2.666321666855244778e-04,3.364954020586750048e-03,2.655734942868360950e-03
1.932328068120121335e-04,3.319290102031443104e-03,2.373583518857708824e-03
-5.091555415983261505e-04,3.018805830508275272e-03,2.682318315376595874e-03
1.736419083396858028e-05,3.540501401479863829e-03,1.962751542448059119e-03
-2.957410895148069978e-04,3.756587326473637654e-03,3.197490183431264850e-03
1.595610123712101075e-04,3.892875489128209358e-03,2.782622709742463372e-03
-4.184396298174536931e-05,4.117726141515808992e-03,2.032006294167657511e-03
3.670904823425932590e-04,3.448447881608039493e-03,1.763135537564219577e-03
1.490184257730981226e-04,3.899696000244292672e-03,2.326222140862966876e-03
-2.989773276815791778e-05,3.481027099060518288e-03,1.652966684007094308e-03
6.401398929066665110e-05,3.536989014090618361e-03,2.665416489225568356e-03
-2.982012945717980520e-04,3.726075043271889244e-03,2.650026024280352673e-03
-7.827949686001711661e-04,3.751069992432510842e-03,1.980483361966633212e-03
5.622195963341321181e-04,3.561168806168470494e-03,2.233811208192122873e-03
-2.908008275228589064e-04,3.469441632145029656e-03,2.680279925859526454e-03
3.098237930947472427e-04,3.430109858998162727e-03,2.247151938440867733e-03
-6.439926668519986661e-04,2.859330475303616982e-03,2.186001350060683482e-03
-1.545710601561533007e-04,3.114064614925643546e-03,2.273932506033379472e-03
-2.389775460705940698e-04,3.633655582735193824e-03,2.399996324766437861e-03
1.714641445780393160e-04,3.845998430949198847e-03,2.557673367969060495e-03
-6.891981985660890512e-04,3.727683779684614045e-03,2.101330209768317945e-03
-3.236724349374069728e-05,3.404553674800398985e-03,2.625615923990539443e-03
1.675065777847522175e-04,4.091955543042268689e-03,2.033716750831509462e-03
6.412665557494266852e-05,3.306972276966909513e-03,1.827496764555630029e-03
2.345362873713878135e-04,3.219839452349159813e-03,1.782685376852587546e-03
1.038926222643718667e-04,3.625335170376841470e-03,2.755449615060586756e-03
-2.074276635269385713e-04,3.753422404193277554e-03,2.179391772424108323e-03
-4.740054967623387287e-04,3.474195034496615868e-03,1.999398393197506126e-03
-2.796019839697350454e-04,4.062201764927496871e-03,2.352990736726230919e-03
6.457604423092592029e-04,3.579466055563087449e-03,1.831567061857249665e-03
2.801399629438671096e-04,3.353199419609225254e-03,2.422900983683002208e-03
-6.346665457616672886e-04,3.461835557244518670e-03,2.335731328510632938e-03
-2.803922860497753055e-04,3.615688976197170557e-03,2.291103810411919926e-03
4.743100825024870780e-04,3.360199769640593356e-03,2.210128503854212698e-03
5.705436794901813137e-04,3.475722004734213989e-03,2.725518077706469422e-03
2.678994309124764820e-04,3.522683396735389744e-03,2.141131204826005659e-03
9.446515053706325412e-05,2.747738830555740506e-03,2.236324707317824140e-03
-1.394555916458658162e-04,3.614017327178098166e-03,2.448625440959962835e-03
-1.810617383991374818e-04,3.407248802830735793e-03,1.714900124695765103e-03
-2.726765991374290846e-04,2.823549797473646431e-03,2.185418260725883761e-03
2.620067900386204734e-05,4.282189315989223984e-03,2.443652562422149368e-03
-4.916374925599625937e-05,3.759672273939568439e-03,2.631544689364448755e-03
-3.321409696652816374e-04,3.687904865134273343e-03,2.336604020738908792e-03
-4.398456064447398180e-04,3.589096004132391431e-03,2.240424697550728959e-03
-4.129084321190170802e-04,3.550247334936882781e-03,2.556143170095557301e-03
1.631830180648069875e-04,3.108578089501738782e-03,2.520421923063807367e-03
-2.321341973654514259e-04,3.884716799815593393e-03,2.673077620002787223e-03
-1.565152152788082363e-04,3.612851072881133677e-03,2.400435951375037152e-03
3.792409928557558159e-04,3.598061106930958066e-03,2.211644626016922351e-03
2.367239206608916973e-04,3.158016369955225777e-03,2.781430740986713494e-03
-3.992735797951981369e-04,3.668844697239381780e-03,2.310685826493941251e-03
-2.825574362959531606e-05,3.208733793457065747e-03,2.107874633700290625e-03
-4.156501093364677697e-04,4.007377239667214361e-03,1.775575976944822722e-03
1.348598640022160764e-04,3.518340100849860156e-03,2.476059560694919819e-03
-2.052016875420733123e-04,3.085982218205263455e-03,2.455225442184803212e-03
-4.650163953425988893e-04,3.139419243887291936e-03,2.496501969110601158e-03
-2.410211778515490891e-04,3.737914175031981697e-03,2.034153912333930541e-03
9.026536895736582986e-05,3.565362572843363761e-03,2.016481388051418779e-03
2.543809763723987438e-04,3.213879311613038973e-03,2.153641411727185741e-03
-2.532347410450341146e-04,3.760245697795255339e-03,2.373653975868997464e-03
-3.020446040919091556e-04,3.954504293254321179e-03,2.373686747095531992e-03
5.593412679058948258e-04,4.356225378264763290e-03,2.095447774110069730e-03
-8.217319011118627504e-05,3.292952858294026161e-03,1.931650974885737058e-03
6.048691442195828892e-05,4.070848613062386621e-03,2.384771643521121313e-03
1.402649994297731234e-04,3.439695161352729347e-03,1.894913721795995392e-03
-9.573085868805688041e-04,2.999732671727369654e-03,2.190556493209405795e-03
-2.083483704928470591e-04,3.840828773481437877e-03,1.932429933138549334e-03
-8.411498898951990538e-05,3.745509554046067436e-03,2.475759995750821760e-03
1.764635727107598598e-04,3.647366047449261076e-03,2.544691643891808762e-03
-8.408754468487609709e-05,4.195324666332351550e-03,2.109690233577863217e-03
7.410904565884931909e-05,4.123056022003283687e-03,1.844698503390778581e-03
-1.168088041481558844e-04,3.514564490221955446e-03,2.738341078011790643e-03
3.436035769687173741e-04,4.262543673890551582e-03,2.515667778445136553e-03
6.682559174490833699e-04,4.038582142552983936e-03,2.139412075165980903e-03
3.683191932407929234e-04,3.093859057361202178e-03,2.105572798590441171e-03
-1.989425856160749408e-04,3.679626662447512287e-03,1.855029255058949448e-03
3.297831663181309764e-04,4.493910010984198192e-03,1.941709018932851610e-03
-4.180591543999497787e-04,3.854378744689973633e-03,2.346903604170969774e-03
1.521634675962908430e-04,2.839063286239947286e-03,2.479063676837815929e-03
-8.572860114028627487e-05,3.584593043575025600e-03,2.705946399706757148e-03
4.914155309686593772e-04,3.847634543255961433e-03,1.824147387208508450e-03
7.981960842776398115e-04,4.289977040385833940e-03,2.273486976662636525e-03
1.024131421810561371e-04,3.949580962423530038e-03,2.531342123456493520e-03
-1.876502743107280840e-04,3.663077789697336429e-03,2.521975329036920625e-03
4.259104716963321604e-04,4.077639012834229429e-03,2.221926901415678147e-03
-9.263947266923458186e-05,3.680838978881752210e-03,2.144418435116791054e-03
-2.630897619249889250e-07,4.069741324470260539e-03,1.942454022330436254e-03
2.558288225554674689e-04,3.483423529591238299e-03,1.661761746169744145e-03
-1.339626555503334749e-04,3.733460117086610450e-03,2.006663723533600764e-03
-1.286618738951256636e-04,4.106634564615439971e-03,1.800728319770157539e-03
-3.427060656775641578e-04,3.994901150959054639e-03,1.779310810142495716e-03
-2.357965158176959313e-06,2.698056866746847363e-03,2.326442924725759254e-03
-5.903792645562009006e-05,3.832984586618738178e-03,2.913119267978518754e-03
-4.565285280469909431e-05,3.404138177188686595e-03,2.582629455832831898e-03
-2.279844452139434888e-04,3.644095534896002464e-03,2.064793756894761807e-03
5.261301322576446342e-05,3.860483299428328543e-03,2.295871834974272559e-03
2.417735906886125290e-04,3.433350154595452269e-03,2.520522197863418658e-03
5.250891884715838936e-04,3.479206978181740781e-03,1.925440283499754756e-03
-1.608773068480763514e-04,3.360321030880797800e-03,1.926767622261770993e-03
-1.806158935072451526e-04,3.611247062665189599e-03,2.315992000266045656e-03
-3.712706931694370930e-04,3.839651885429945424e-03,1.639002513527886094e-03
-3.540721200003248159e-04,3.806276398733762951e-03,1.773175663107150234e-03
-6.372578833408850990e-05,3.319221765932159948e-03,2.540087162053632133e-03
1.480596628368226197e-04,4.346404665906511249e-03,2.785196507454356513e-03
7.609559528134320300e-05,3.229083637681266945e-03,1.899687862131680446e-03
2.253464578627077295e-04,4.274524034499373008e-03,2.374764870022306063e-03
-1.399949791869079331e-05,2.877355629781753934e-03,2.143439226614318911e-03
2.796500056034929784e-04,3.194917072626020458e-03,2.246687833610292156e-03
-2.386156290342788123e-04,3.491939626371746465e-03,2.333552763442447303e-03
1.300180326645711899e-04,3.953090187305352034e-03,1.909960056192362872e-03
1.111042556349499475e-04,4.129809620880295871e-03,2.076928210193559627e-03
-1.508190304425935488e-04,3.307219248922229748e-03,2.763108353032625933e-03
-3.805016529773919869e-04,3.206768189141722715e-03,2.294261164731265217e-03
1.360012410434649607e-04,3.336019606948434184e-03,2.124203274783682642e-03
1.027807405236927152e-04,3.812502373025238468e-03,2.213511949068782368e-03
3.854054974724565805e-04,3.383915593180925746e-03,2.609815343359345868e-03
-2.622081964022456978e-04,3.585670080772181481e-03,2.130972514549548877e-03
6.718976672530789290e-04,3.759122164975670435e-03,1.847215636962794283e-03
-2.770422714311552431e-04,3.378746500585981700e-03,1.920141575308295136e-03
2.585048134204650486e-04,3.845775489284037393e-03,3.024521521212688527e-03
2.860871377621205863e-04,3.614662633162425958e-03,2.696472665405103084e-03
-5.454801656796128126e-04,3.606378035905802998e-03,2.238218343094067198e-03
6.596834297176768804e-05,2.455677911723372440e-03,1.760135830992828280e-03
-3.478927992855955368e-04,3.490779696742178986e-03,2.859732230556890232e-03
-1.337437301743696133e-04,3.124531935040081657e-03,1.917361293925068117e-03
-3.154595046701175209e-04,4.025104566080170421e-03,2.285048945909990119e-03
3.349255680487571576e-05,4.127554245235393049e-03,2.513678801447743767e-03
-2.185657494879865578e-04,3.794153059825839790e-03,2.268121593949777495e-03
-3.217680949684372752e-05,3.644177411445027968e-03,1.992121225755577336e-03
2.182715192037314384e-04,3.862552318918983669e-03,2.233281131622953143e-03
-3.887601844279885447e-04,3.702309732687598508e-03,2.022235318589865258e-03
-4.017824536838647239e-04,3.855894551112788986e-03,2.136951571287162756e-03
1.021928873783419227e-04,3.812207296165847671e-03,1.489393637737372123e-03
-4.125684722299429117e-06,3.811015960706611982e-03,2.542133182182633802e-03
-5.747925096629091747e-05,3.290063389840754485e-03,2.858520668662099459e-03
3.662175692510945659e-04,2.825646807147246843e-03,2.406017891728163410e-03
6.717070206988535043e-05,3.370808552583771586e-03,2.690437405260733342e-03
-1.904097310265016676e-05,3.821440516144850117e-03,2.126540737495942902e-03
-3.461056413789422872e-04,2.657339694371341991e-03,2.678959724623697271e-03
7.615063915315577008e-05,3.274411949447037992e-03,1.646159051896160883e-03
2.528161426431676769e-04,3.287520483488389454e-03,2.194348951306651554e-03
5.029114183017267765e-05,3.914690929144782131e-03,2.066804931823981901e-03
-3.812453484179158562e-05,4.010154850227012208e-03,2.437482038998259846e-03
-1.277960381986309793e-04,4.061045545119704690e-03,2.527420839116995346e-03
-3.430899297694171726e-05,3.590781610320248254e-03,2.295304768629137081e-03
-2.918039629038361314e-04,4.125446757794169056e-03,2.195897094645928287e-03
6.108729198921925452e-05,3.683413194518771281e-03,1.885108300914045340e-03
3.605468377120899090e-04,3.333615488393749330e-03,2.489615859110746662e-03
1.485700708191566054e-04,3.681259762349964066e-03,2.378352027022796137e-03
-8.439960217337919728e-05,3.338671565802075851e-03,1.705761883897504100e-03
-6.922686107659135456e-04,3.562780231751078164e-03,1.955677620507412229e-03
-3.047198675238132646e-04,3.877944189250475456e-03,2.845181388360622319e-03
-5.091061143320328285e-04,4.053473106478742635e-03,1.853017037225271682e-03
-4.176402290423702134e-05,3.696653809828993626e-03,2.318059655913937232e-03
-1.495913577407107235e-04,3.603031297736642227e-03,1.959661407780320056e-03
4.605292091882805705e-04,3.461289089978615476e-03,2.605936650811287777e-03
3.414766840507969174e-04,3.626630589813945992e-03,1.905083720444155629e-03
9.880544455902519894e-05,3.369981650627185132e-03,2.048936662644227150e-03
-1.776005605361236550e-04,3.631321280093657757e-03,2.378737333560758567e-03
9.443813476522284534e-05,3.297125536050251205e-03,2.360850839051129631e-03
-7.059357469935974945e-05,3.834389694284282956e-03,2.378713769719835360e-03
1.217691984053323847e-04,3.417672881150741419e-03,2.374382213943401158e-03
2.072671318004515133e-04,3.734771406789290631e-03,1.840398508423368544e-03
4.902930911234770533e-05,3.352312440327673716e-03,2.324361860937094234e-03
-3.352662893201033821e-04,4.060489785432076608e-03,2.100344391841799541e-03
-4.770578587804293069e-05,3.503726248089643856e-03,2.310665951901281698e-03
-3.055701585996092656e-04,3.735688340797815345e-03,2.261305701205917461e-03
-2.783669496832217628e-04,3.748067642599873812e-03,2.504931100363226148e-03
1.299899947933691317e-04,3.760516291176092124e-03,1.950214052884735897e-03
1.950671743540459250e-04,3.827943900062120638e-03,2.542955648902358017e-03
3.806222826371255118e-04,3.262134025967155376e-03,2.126191956630719884e-03
-8.544925208168929124e-05,2.989223619379362522e-03,2.356952625921446016e-03
-3.826217575516049370e-05,4.450676225696129952e-03,2.992794941758782513e-03
3.319469692853241056e-04,3.303978511996078296e-03,2.081742015681106294e-03
4.483180061362034832e-04,3.633967397182271981e-03,2.007004706595706591e-03
-3.406762479717782453e-04,3.700854608473771318e-03,2.505862307612158595e-03
4.969310583863358624e-05,3.446191790733877172e-03,2.336085119778428826e-03
2.233955246529907958e-04,3.998286381161991060e-03,2.370032568417194604e-03
-3.408594287385064456e-04,4.242402341637251627e-03,2.307545691911283732e-03
2.914218423228659037e-04,4.059224839503983856e-03,2.296428802544581670e-03
-1.424219588868916525e-04,4.323580022459697775e-03,1.724253611629574271e-03
4.421729237649431820e-04,3.734297218057474124e-03,2.502156515928218722e-03
7.561075786866992300e-05,3.319678991839127707e-03,2.023103999116322282e-03
1.095971361097081815e-04,3.280688499096887437e-03,2.315268853998354338e-03
3.773181853669026220e-04,3.378832260470010593e-03,2.354904179124149653e-03
-3.667323765676439138e-04,3.528671233050107141e-03,1.970229134413129055e-03
-1.993735346005056318e-04,3.160433408798542145e-03,2.241085119524004274e-03
1.482130981446452009e-04,3.476315814582933879e-03,2.269615819771982936e-03
1.035774107905936946e-04,3.603800905987259492e-03,2.341722388042269832e-03
-9.318049447989480054e-05,3.824347978116913929e-03,2.118189207629283047e-03
5.475546699120306974e-04,3.617148039875644604e-03,2.511105884735503630e-03
-4.481159325473515294e-04,3.539445077406432397e-03,1.841728801778827734e-03
-2.581165365849149218e-04,3.857202733413700544e-03,2.147573448197999824e-03
-2.629619464611540028e-04,3.607317803223210242e-03,2.647284442994240431e-03
4.050648295302939832e-06,3.331447763897934459e-03,2.762332007462872923e-03
-2.880059237449961087e-04,3.823355850422140764e-03,2.259971387507859076e-03
4.959321671001715170e-04,3.729282314784343119e-03,2.048258557474307018e-03
-1.679978985803357884e-04,3.554747453041763421e-03,2.114000653271694112e-03
7.450269762822446138e-05,3.744053263888870182e-03,2.097322827463005655e-03
-9.017708313343309454e-05,4.007761942367346793e-03,2.242677782341671259e-03
-2.766816066270496211e-04,3.374990631914518129e-03,2.244519472490709260e-03
2.623529361692191141e-06,3.479239150114435061e-03,1.524316917239537531e-03
-2.920417585821839302e-04,3.940618917944773911e-03,2.188115492842454806e-03
-3.309451483526252929e-04,4.097520616092222706e-03,1.761037335593481626e-03
3.656202898924779013e-04,3.554674227503297305e-03,2.181657863637820154e-03
-1.255101779234580944e-04,3.651894234208584097e-03,2.784288022258956177e-03
-1.296371834772762517e-04,3.308357361997342743e-03,2.461363800181930964e-03
-3.091711040202662080e-04,3.029800860803076850e-03,1.836753446061304860e-03
-3.768537489856005015e-04,3.716750995286564104e-03,1.679866239115610253e-03
-4.914568152256583878e-04,3.834274377183229891e-03,1.819255035590278211e-03
1.403790463237010249e-04,3.489460881643252545e-03,1.858771792409787474e-03
-3.210618224877264532e-04,3.518570588286701849e-03,2.344967836655286169e-03
-9.993485179367462537e-05,4.086962140815919228e-03,2.722392493815828200e-03
-5.383057240981203211e-04,3.050018228177847970e-03,2.020518135189160007e-03
-2.194873107835739053e-04,3.430743697155052424e-03,1.675004237425114411e-03
-2.135896558027656664e-04,3.734670966482317618e-03,1.891303018874391194e-03
-7.843391771561664724e-05,3.131073558257501267e-03,2.447077473330151742e-03
-3.529274370575937879e-04,3.784780090796821192e-03,2.389382412468493613e-03
2.087247450790340360e-04,3.679324157295550592e-03,2.628185750728741221e-03
-4.220097903201041104e-04,3.560174338368715143e-03,1.915264961126708458e-03
2.020730155905512174e-04,3.369393701420903171e-03,2.230578948256880124e-03
3.528545422593207183e-04,3.469886663347358097e-03,1.797173125972908753e-03
2.720066042463698290e-04,3.633271989628064375e-03,2.766816688654925686e-03
-8.426141621575240011e-05,3.327658778653197306e-03,1.549400698529377826e-03
3.076976292113316972e-04,3.232519070622167506e-03,2.829968793759020732e-03
4.645881735613244424e-05,4.061737913943646618e-03,2.376118917331026224e-03
2.402106117888056769e-05,3.788701004386948058e-03,1.588958228611648833e-03
3.178137470849423185e-04,4.070811282321684828e-03,2.234541489051638640e-03
-6.129392663695308781e-04,3.127081731803346525e-03,2.115220574607036552e-03
-1.546968776854238076e-04,3.881603929347997826e-03,2.646845507542636058e-03
-2.749005507044725979e-04,3.627230484074477068e-03,2.203623136454106301e-03
7.867214183262275992e-04,3.224714059885295560e-03,2.249481325094783782e-03
1.063194472928762502e-04,3.370725335308711549e-03,1.416286090341199039e-03
-3.047271689092051158e-04,3.527954074552469479e-03,2.271671795645452581e-03
4.331253385644649539e-04,3.739929094591524627e-03,2.415239061697840861e-03
1.569137168039111830e-04,3.198490348102441417e-03,2.400561663785510773e-03
-2.962530863148993038e-04,3.231014586630083420e-03,2.174511203453591279e-03
-6.621423280805795262e-04,3.866592668689962202e-03,1.955400932096107696e-03
-2.717302599582760718e-04,3.644991603544252539e-03,2.074051238399117654e-03
6.594891856089244711e-04,3.636735638499723460e-03,2.116535331239792657e-03
-2.216975958750743011e-04,3.799727868332128996e-03,2.828053174301690779e-03
-1.665891942110614855e-04,3.470464545307083270e-03,2.375168120957614135e-03
-1.190668691843488184e-04,3.581478139915186126e-03,1.578364161257612150e-03
-9.059154318620403533e-04,3.576394925393394826e-03,2.205143156808600079e-03
5.275192348788340359e-05,3.540565619192872614e-03,1.914121969609802135e-03
2.803785417041281870e-04,3.702028210464226778e-03,1.688839567644945293e-03
2.219847102551238062e-04,4.067758379288709258e-03,2.726950972882350322e-03
-2.315583012771253935e-05,2.794176273203105750e-03,2.505331566323127247e-03
8.699640919446350186e-05,4.165113226137400274e-03,2.087399604725386718e-03
1.477255751612550482e-04,3.171523915417581458e-03,1.574998546564933483e-03
-1.823077559862344569e-04,4.134904212480402207e-03,2.226398201170814908e-03
4.096952257979377611e-04,3.810978562940799032e-03,1.688052205526512691e-03
2.251568986534423274e-05,4.306812098022892027e-03,1.976049391351241032e-03
4.344817547829692692e-04,3.770207648614753299e-03,2.249378885859317553e-03
1.518006902897923983e-04,3.200069174014756861e-03,2.001343553937390794e-03
-1.388321602592641128e-04,3.714318494954044637e-03,2.182257973727658347e-03
-1.196436044435073779e-04,2.759127447252002468e-03,2.318776380091106416e-03
-5.802094705395367515e-05,3.108964613627986182e-03,2.191259003484443291e-03
-1.083413923141055300e-04,3.678378563677810100e-03,2.376802986414214541e-03
3.756620602092030704e-05,4.050512494588914998e-03,2.581493410971950724e-03
1.243782186629025963e-06,3.704490043328425436e-03,2.329765007062058104e-03
2.763166145436812176e-04,3.455824357565665580e-03,1.827544247034397235e-03
-1.566348114128790917e-05,3.677622877101209987e-03,2.342594064136498989e-03
-9.367943497565049162e-05,3.456686825280447326e-03,2.514897174483094518e-03
-5.896366571737102430e-04,3.956916080662817997e-03,1.865564753137276396e-03
2.836650083536166288e-04,3.417909065966069637e-03,2.290701518848135484e-03
-7.567168764633803307e-04,3.169285393078687639e-03,2.372930961288023666e-03
-6.083287474419639201e-05,3.793912024614183066e-03,2.454840022802075999e-03
1.467984895683011135e-04,3.790330929970846599e-03,2.604278512258476758e-03
8.555436943829717537e-04,3.494699569429659657e-03,1.946681530796796943e-03
5.055498979378055934e-04,3.940898255433679387e-03,2.005168390273282322e-03
1.119744234864764564e-03,3.411865767643273203e-03,2.316949703630776479e-03
-3.025294079179831949e-04,3.382175686707534438e-03,2.207856487461735268e-03
-7.710511722611028710e-04,3.769365079563752503e-03,2.472996980544656630e-03
-1.378318264611513757e-04,4.083348060111387755e-03,2.305647435280219065e-03
-3.684995572008875858e-04,3.797875105966245363e-03,2.277102566028171848e-03
-8.853516022159771328e-05,3.478195405468018000e-03,2.430754683771021388e-03
2.613320986521437163e-04,3.655226896356571567e-03,2.790712293650768512e-03
-3.970773082363959544e-04,3.325405970942241999e-03,2.167144165899956721e-03
-1.381832718882438271e-04,3.478831699385245401e-03,1.884675546137892658e-03
4.123354331584892492e-05,3.514200325860419253e-03,1.939574697339635587e-03
-1.940337543314610681e-04,3.142053705820244819e-03,2.924337608797789034e-03
-1.161991005400796016e-04,3.671460885338395132e-03,2.320688583260198390e-03
-5.703007945751810805e-04,3.963547207948504326e-03,2.877095254131389630e-03
1.307401140249339432e-05,4.614899675135011696e-03,1.922502294450289867e-03
-2.814567638059941711e-04,3.821916726887069054e-03,2.639843028767657751e-03
-2.136174030246123384e-04,3.581568598103015717e-03,2.247202280711789110e-03
4.458336575736270723e-05,3.097480487468160567e-03,2.160141751872474408e-03
-2.998991265183986320e-04,3.828084725606984481e-03,1.663063976108854767e-03
-1.115692803997893134e-04,3.230286175905582383e-03,2.493138187314771544e-03
6.811534436407866932e-05,3.315233710786853315e-03,2.053468238612100264e-03
-4.295258734876077024e-04,3.879931336620081293e-03,2.309455382393858086e-03
5.848742598741484332e-06,3.460342203825691500e-03,2.392388167508777315e-03
1.106652837295526683e-04,3.588388497863237697e-03,2.331246811088360897e-03
-3.399682105989048058e-04,4.372921825527036586e-03,2.381150442542095697e-03
-1.226201756613562715e-04,4.118807957639520137e-03,2.077726673921630098e-03
4.768918299877728580e-04,3.477891410337710740e-03,2.189634441574250020e-03
5.983219327874039241e-04,3.986670890152758245e-03,2.343537538240542117e-03
-2.044341852824174753e-04,3.129557586585185631e-03,2.271189994263538535e-03
-5.875285934778737680e-05,3.256179951226505654e-03,2.053363550964457541e-03
-4.564850431135439622e-05,3.356715483948352011e-03,2.249517030697242414e-03
8.047483352618088615e-05,3.756346959547868930e-03,2.006868355952985596e-03
6.905044078672693516e-04,3.271629239970513369e-03,2.308776469193619518e-03
7.887353469357318890e-06,3.798403711941200113e-03,2.334496441651052676e-03
-1.750682823088772148e-04,3.876803003836956207e-03,1.684208166646868369e-03
-8.887543886119857531e-04,4.006453856466320705e-03,2.703713696343471983e-03
2.520403614804407198e-04,2.954189599143378000e-03,2.394116062239594507e-03
-1.758658086391358605e-04,4.261289362284328974e-03,2.827253876729237444e-03
-4.043772338488407715e-04,3.687830318721521412e-03,1.856859107622790871e-03
4.097382326177306734e-04,4.132346753973972081e-03,2.368626665431284271e-03
4.836264786470488835e-04,3.411772861440212114e-03,1.468787709344564034e-03
1.078040421823809767e-03,4.311895869592660517e-03,1.678449522541356799e-03
1.892657009215331198e-04,3.573707033284707641e-03,2.626297962634021634e-03
-2.107201264087460620e-04,3.710879425898320344e-03,1.984838621802027456e-03
-9.685338179367114356e-05,3.934719783306141888e-03,2.468895083336892105e-03
-4.039947197306623789e-05,3.216253961339056618e-03,3.082900868615622101e-03
-4.857200316212533907e-04,3.465629549171232379e-03,1.984139533047301826e-03
4.966136706612780559e-04,4.309480359339953708e-03,2.438554826522996207e-03
5.493635256662796887e-04,3.104910629475216965e-03,2.367592522300057765e-03
-6.083960028109389347e-05,4.025903717718362987e-03,1.949951003060392549e-03
-3.045996417894099892e-04,3.294589718752720213e-03,1.664800589663567240e-03
3.530993465619435259e-06,3.253902957445187726e-03,2.662723066681976000e-03
-6.086731931461135826e-05,3.925545162568221808e-03,1.765367328561248195e-03
3.604173344426083342e-05,3.918540536573164243e-03,2.482191382661190406e-03
-1.311771004573611876e-04,3.451393037457965197e-03,2.147290855745383892e-03
-3.089778330792498375e-04,3.965873135942605231e-03,2.505338942690191716e-03
-4.330738387294271434e-05,3.451087948193303639e-03,1.701100963777062809e-03
-5.453168365579507413e-04,3.202826002708460389e-03,2.253953907321266676e-03
5.506560034924864186e-04,3.082519919063701590e-03,1.970917689513693952e-03
-9.775780317452846481e-05,3.412375943747682477e-03,2.488246526458347350e-03
-7.005007233372758779e-04,3.415987205033369292e-03,2.761439437516003109e-03
3.889887635474069925e-04,4.443033121039929693e-03,2.138739303481355675e-03
5.391222763837371377e-04,3.039630912539690710e-03,2.133930303910172230e-03
1.613641753884916485e-04,3.073651808499113739e-03,2.049592013950997296e-03
-1.965579702073592310e-04,3.347943240544954107e-03,2.324005981385469065e-03
-2.382434169815742853e-04,3.272580794157442692e-03,1.995761265659217690e-03
1.810957370465491592e-04,3.604251980042401556e-03,3.246045429409364323e-03
4.884694273382863682e-05,3.603643790117467671e-03,2.379571092597185591e-03
2.366233509653447594e-05,2.242929594866194774e-03,2.115505111994065227e-03
-9.333169326478509841e-06,3.456660554216843713e-03,2.364686386478955567e-03
-5.061808931684446495e-04,3.613774619016586406e-03,1.935044872120000696e-03
4.368037942665256904e-04,4.277990730111042549e-03,2.297828267653847026e-03
3.286097004624526324e-04,3.825278137325553371e-03,1.961480312928609495e-03
2.400777761968067516e-04,3.546960644331453687e-03,1.909054178563728997e-03
-4.949346730144575913e-06,3.784289225460793406e-03,1.944503863106551277e-03
-3.777743870903096674e-04,3.224763375866192185e-03,1.848817016016514282e-03
-2.278908603856495685e-04,3.498516775033850591e-03,2.456197802937153639e-03
3.654203025258338734e-05,3.698149541402167423e-03,2.438941725867100827e-03
5.647707442232892389e-05,3.499208342099790082e-03,2.727477231236345463e-03
4.136640473864101734e-04,3.553399028116737291e-03,2.874493029482678118e-03
4.113470207274012446e-04,3.347103626587243173e-03,1.542134090568761601e-03
-3.909104328867492019e-05,3.672480674888273840e-03,2.443245729107027062e-03
5.919274927321142648e-05,3.770243212361762235e-03,2.189197469733512001e-03
4.507494172897405396e-05,3.348646220388480730e-03,2.501339507235621987e-03
1.528507453129809845e-04,3.530494306931752490e-03,2.166959747456883266e-03
-1.778518889826204564e-04,3.576117564844166850e-03,2.482822084815360878e-03
-9.972200365028793562e-05,4.372596705792447351e-03,1.852652222074393801e-03
3.293509374932080194e-04,4.043172829629739298e-03,2.189551444592783679e-03
-2.743564931245907629e-04,3.884464476542285466e-03,2.462458409532706626e-03
-2.008907129765780412e-05,3.826967505717622856e-03,2.817307235529990274e-03
3.434014567292531192e-04,4.054643760341549406e-03,1.891241084772297574e-03
3.928585781565117592e-04,3.902737862144291161e-03,2.002631165018884350e-03
-3.006309829041525932e-05,3.690333283253200911e-03,2.253759523186645627e-03
4.777354226264884582e-04,3.375225759761347512e-03,2.692309121956744551e-03
-5.847593146811589683e-04,3.789543826322659854e-03,1.965503433483449178e-03
2.749927804473200504e-04,3.792387941943961994e-03,2.152653583440162534e-03
-2.422976386278243575e-04,3.381497810364250765e-03,1.955077223932717365e-03
-1.432970219764041428e-04,3.566107641947043484e-03,2.335439180348488231e-03
1.584274300886009024e-04,3.241674958499769516e-03,2.544569902681477740e-03
2.643793177300787626e-04,3.524937587069433120e-03,3.165493865110061405e-03
4.312036291813264085e-04,3.474039078825456959e-03,1.893640354691796587e-03
9.549471439956147111e-05,3.791216914097938866e-03,2.403709203640835932e-03
-1.083054287924421327e-04,3.823013840937691549e-03,2.366349054390972425e-03
1.478544113770397981e-04,4.006189925229892111e-03,2.196803308563084582e-03
2.068087135927690790e-04,3.756766686444033485e-03,2.559821942721737797e-03
7.131176789258097601e-04,3.266227348355211450e-03,2.674640301044476937e-03
-3.744200245391157309e-04,3.028453938470788455e-03,2.549473240383921552e-03
2.930355235948866612e-04,3.885220963045697001e-03,2.260218024596024472e-03
-2.201741990386636328e-05,4.470717698669502381e-03,1.891894768103785738e-03
5.342701922804050235e-04,3.883272130537531851e-03,2.274312994531012353e-03
-1.185141004859323165e-04,4.129090832088780014e-03,1.993733903995447646e-03
6.279948236422738415e-04,3.664307858956726820e-03,2.518446060645433259e-03
-5.451904203036976376e-04,3.077218465019722436e-03,1.852299912274577021e-03
-1.633051943098671967e-04,3.635707156995815828e-03,2.374400789771812653e-03
-2.921694025076618587e-04,3.570592554949890331e-03,1.878975747182726891e-03
-1.532168263537210377e-04,3.591217956668091814e-03,2.377580638476438617e-03
1.886895015160569772e-04,3.686659991526534605e-03,2.573410088104214830e-03
6.961070592793335661e-05,3.420550446082607117e-03,2.924433417655648067e-03
-6.426783861807850926e-04,3.093076527024818043e-03,2.550437720755515184e-03
1.211485342134525842e-05,3.994594028843264331e-03,2.260343609184237938e-03
-1.794469488780175168e-04,4.193990071177316516e-03,2.240810120414462019e-03
3.018220105853982650e-04,3.401656065835305821e-03,2.008968172830165409e-03
-2.184435069108742742e-04,3.594028855497260685e-03,2.744840961109775226e-03
-2.553874182389313753e-04,3.475730648477126390e-03,2.186484807742680725e-03
-1.460903864863990424e-04,3.434954756562539225e-03,2.394848346305300177e-03
5.459657152782458549e-06,4.331629410410640403e-03,1.982878052717405078e-03
-1.864534230903768593e-04,3.830675536440031250e-03,2.380253156605389390e-03
2.557060183774971908e-04,3.353857608222736517e-03,2.503806707120296692e-03
4.179045172113130327e-04,3.542935012525018010e-03,2.561375738755243461e-03
4.811232844048182939e-04,3.535565031634835004e-03,2.189265437039926519e-03
-4.918327493096670382e-04,3.904901382883055674e-03,1.908861194830238943e-03
-2.485051503614344511e-04,4.006872115708580602e-03,2.197069195815791812e-03
4.226188127857158860e-04,4.022193629691044395e-03,2.451758303690003762e-03
8.171393653405870311e-04,3.967410443568678523e-03,2.451190599638224717e-03
-1.423453737180689627e-04,3.608223947782883672e-03,2.286626352046124827e-03
2.110703341650158320e-04,4.099490178174307678e-03,2.647242003549767856e-03
-3.855475762076367532e-05,4.005086125544790425e-03,2.527193103522877831e-03
-6.086398279388477683e-05,3.591411944197061331e-03,1.881586579386657987e-03
9.729704988983278453e-05,4.101646244002650141e-03,1.783852402524679871e-03
2.928267531461093798e-04,2.792315727464890485e-03,2.638976646212879123e-03
2.742394965661932357e-04,2.868967069311457226e-03,1.906882981603965580e-03
9.706734326919026475e-05,4.365564627370178974e-03,2.055860452078823661e-03
4.582988436399496697e-04,3.793882343298443649e-03,2.179625962028123969e-03
2.111401302392476240e-04,3.503657978006533696e-03,2.587763947467994555e-03
-2.003552592096630809e-04,3.396664908282728736e-03,2.256628908091431150e-03
-1.695400680477935891e-04,3.810473906664352522e-03,2.239604432167416510e-03
-2.468535273918839651e-04,3.482685793390594229e-03,2.167598704955673011e-03
-2.593611054678092356e-04,4.278662367735111376e-03,2.450369286416960446e-03
2.968208681653767677e-04,3.972207033465074630e-03,1.712997572536381326e-03
-4.781376881772301525e-07,3.709353967446289615e-03,2.452286020935738088e-03
-2.595157428077370164e-04,3.426621307998989081e-03,2.227752454087219593e-03
1.965279146495087798e-06,3.777894600354996576e-03,1.924068543050365876e-03
-3.320772695933609398e-04,3.313308852940125265e-03,2.495457424631385580e-03
3.943398624572845785e-04,4.072345436499615751e-03,2.168599413062993319e-03
2.915339558266048380e-04,3.030022793361415896e-03,2.073205308154065906e-03
-4.815301123898174294e-04,3.583257445202594257e-03,2.351897462864209996e-03
3.562366645852547303e-04,3.474131820319210657e-03,2.051127157322328587e-03
-3.313107917206714690e-04,3.579906849197332132e-03,2.168870553152040057e-03
6.411070239098789591e-05,3.581551286778993006e-03,2.102970701802225721e-03
-2.705422455763995131e-05,3.695483372455021960e-03,2.294727918616478769e-03
8.985718677597965545e-05,3.192436757256205543e-03,1.840598134942855431e-03
1.976947220715414156e-04,3.822442755968516199e-03,2.176277194797219487e-03
-2.613694644271925696e-04,3.713803271234222044e-03,2.302483401105621941e-03
9.849765031313473859e-05,3.978071995332531363e-03,2.116569599177269435e-03
-5.059527189199984534e-04,3.649025884564635266e-03,2.257747424789820125e-03
9.305518319235662518e-05,3.999513848220825722e-03,2.467896194840252678e-03
-3.407077747420313141e-04,3.718693125558213044e-03,2.143259031940978297e-03
3.891551270321018212e-04,3.263408884003726317e-03,2.386705900127792431e-03
-1.112625125627695374e-04,3.595010574057188549e-03,1.740439178489666498e-03
-3.404564851529826692e-04,3.879718753725922703e-03,2.559670404853898237e-03
-1.253768950750555643e-04,4.008236771804555253e-03,2.353875391884045678e-03
6.207693043710871099e-04,4.164980723763121902e-03,2.213765228376676428e-03
3.169393660051442380e-04,4.082359058531544876e-03,2.163936699120788155e-03
4.357749775900219462e-04,3.447632832680175632e-03,2.526052330781758740e-03
-4.164002793993288524e-04,3.456481703303186485e-03,2.175023550681489445e-03
-1.675309552353210834e-06,3.331695580122981740e-03,2.031703672604462732e-03
4.749498204934525947e-04,3.840595960003051045e-03,1.944637993372607190e-03
1.423630198683312968e-04,3.942587441404655016e-03,2.247585271817251727e-03
-4.908551063093296142e-04,3.715341620721044919e-03,2.726594788027514055e-03
1.138021882628185213e-04,3.294145811422267544e-03,2.454588469370920338e-03
8.207516936625314837e-05,3.751383815854047576e-03,1.687457991480997193e-03
6.413653494183349469e-04,3.238779961574742364e-03,2.039855890105495527e-03
-7.070365693716477822e-04,3.006087797194393132e-03,2.360940444884628876e-03
-2.256369113673627408e-04,3.243573349592139988e-03,2.200765275360615312e-03
-1.782227597592042349e-05,3.960514078070580431e-03,2.382169057783469369e-03
-1.667919545489720743e-04,3.637613733295186336e-03,2.490486492114470790e-03
3.182541316043512427e-04,3.758288469275444712e-03,1.934139619050914347e-03
-7.338122357194060953e-06,3.818934147130598460e-03,2.454119495503657034e-03
3.132671009458782782e-04,3.948243075933575985e-03,2.639578266602337926e-03
-7.979805705380514549e-05,4.008992537121660801e-03,2.316655435856092900e-03
3.028423908866651566e-04,3.717040966321729679e-03,2.698065989260774351e-03
-2.066207680702683536e-04,3.814341537795445502e-03,2.288835714657498025e-03
-9.842523841452626050e-04,3.794858107893055513e-03,2.274492172435917461e-03
-3.543028654563401894e-04,3.467904549617798274e-03,2.196332699798959724e-03
4.402063076180669850e-04,3.763094553752183245e-03,2.442603176116206476e-03
-5.336515692601471626e-04,3.848964036112337804e-03,2.534752648406058805e-03
-1.395738284597090786e-04,3.670739602028615448e-03,2.330958361789922835e-03
3.753849456812763797e-04,3.194509772186062378e-03,2.121419284142590355e-03
8.988519482482415827e-05,4.262583096180003542e-03,2.464409505258397057e-03
5.138665791166860050e-04,3.869259272820554669e-03,2.264211419373698009e-03
5.575854636618865766e-05,3.489830031811596515e-03,2.783735204323527137e-03
2.837998363914864223e-05,3.438904621589895880e-03,2.773524332191113894e-03
-5.919839178704914455e-04,3.656302336981914324e-03,2.713686450741700350e-03
-4.337413687333441714e-04,3.598361002424430022e-03,2.026402038493367412e-03
4.794040497076774879e-04,3.699576477827090822e-03,3.100228549016386618e-03
-1.807593105078366552e-04,3.002376744719807266e-03,2.316419335569675896e-03
-2.488818645692962052e-04,3.660038020991256916e-03,1.843493772924482748e-03
-5.420344931207696356e-04,3.749832356607623457e-03,2.234930101272267038e-03
5.303723089516563827e-05,3.464458655198421680e-03,2.148858141548294371e-03
-1.937714355174974322e-06,3.628979255223358565e-03,2.061367825557797618e-03
-8.357070598739744713e-04,3.430007361175119434e-03,2.449248681611133210e-03
-2.073292847252810651e-05,4.006216732763446219e-03,1.555405409889429845e-03
4.795829532592171579e-04,4.129505455150258957e-03,1.502586391107020016e-03
-4.089381323428747982e-04,2.651138409367672505e-03,2.791822942023861054e-03
5.529038081254690918e-04,3.453584147284559976e-03,2.427115266088632553e-03
2.266914692561220260e-04,3.703485335357442620e-03,2.501280970981359809e-03
-5.652826034185756991e-04,2.630472548119094835e-03,1.817942058392116138e-03
6.650408620782145754e-04,3.595807973736134169e-03,2.077497152480992006e-03
-2.740220479516682572e-04,3.606765848086689041e-03,2.386850926063268426e-03
-4.292296346428893950e-04,3.287193266699699537e-03,2.254664529607714862e-03
5.040480547057445962e-04,3.549667996943629052e-03,1.948936037707744333e-03
-1.594318672838763063e-04,4.216549957228294884e-03,2.189640063635631996e-03
3.948620108420635225e-04,3.952159876735908059e-03,2.978882465975062760e-03
-3.307061543431543608e-04,3.392713142991053352e-03,1.528610952532966040e-03
3.035947429938929939e-04,3.420669820984616541e-03,2.269657768326769406e-03
-1.027125139776649147e-04,3.627284241063671345e-03,2.379315202435234276e-03
-2.354743550660269298e-04,3.776263000870785404e-03,2.799900812444140307e-03
-2.219821599976713787e-04,3.158302460639553395e-03,2.014480655807263446e-03
-2.747003475791222858e-04,4.293744895346812696e-03,2.836699484787528949e-03
1.355961192728400929e-04,3.807218874320607901e-03,1.919896443908217188e-03
-3.289927400911399130e-04,3.755408014986313849e-03,2.182373542613112467e-03
1.411998646027147551e-04,3.440895202585500263e-03,2.104690423294132157e-03
-2.970295816809544664e-04,3.013583652899959157e-03,2.055614358147357570e-03
5.421106382198942768e-05,3.719199381897850872e-03,2.023727917608739765e-03
1.756808060740184044e-04,3.873676481764647215e-03,1.916646764116691076e-03
-4.882045332872002644e-04,3.419213943224314566e-03,2.127526319626374656e-03
3.905666772315927052e-04,3.761760764151373965e-03,2.172945367217840248e-03
1.330957450639587566e-04,3.483173419760062211e-03,2.417711791159559212e-03
-4.658413364935319731e-04,3.695659296930414728e-03,2.590588468911891960e-03
8.418006846217410502e-05,3.182400061801111697e-03,1.780120409203043248e-03
-4.802159094598291511e-04,3.767812751247876565e-03,3.344644649655157276e-03
1.254656370196236882e-04,3.993467017888847198e-03,2.287367724654121651e-03
8.996083207472738304e-05,3.439000951463934766e-03,2.412254023405944678e-03
-9.404000382820476252e-05,3.846263926388808485e-03,2.358534725873417601e-03
-1.847643866158939707e-04,3.642079900743776764e-03,2.486855606220420272e-03
-3.710705306844111658e-04,3.607729988440849193e-03,3.044437001398407096e-03
1.999263474608478912e-05,3.567629880360619152e-03,2.576330175365658566e-03
-4.345641249667767493e-04,3.396607229798496042e-03,2.342209732275054006e-03
3.385085143627161622e-04,3.041312494779396716e-03,1.650547534791392849e-03
-4.890816173732793863e-04,3.163933600157875069e-03,2.208728921861987868e-03
-2.058752292457918950e-04,3.734567578289177663e-03,1.722402491514756027e-03
6.630283190782671398e-04,3.403000239389592559e-03,1.934826912160655119e-03
-1.568068136767163123e-04,3.625697152342347278e-03,2.309370927268566010e-03
-3.131564522412612258e-05,3.709359492224613680e-03,2.787156604042574041e-03
-1.238880272977280737e-05,3.701830504466608381e-03,1.961800109211151930e-03
-1.838836884630447668e-04,3.919814693662719909e-03,2.045025652672111897e-03
3.412910632548325334e-05,3.452839821001397590e-03,2.579923471071781001e-03
-3.982144996628382647e-04,3.311213038097610053e-03,2.319771261508749970e-03
1.511996824125019410e-04,3.783339341904759425e-03,2.470067855077876396e-03
3.440839399992823159e-04,4.162334238505864537e-03,2.269024220754012854e-03
4.269373895256321359e-04,3.364076462698992968e-03,2.517149894327467326e-03
-2.072813473120123980e-04,3.879385214067622087e-03,2.059280672904392501e-03
-8.875022942410157225e-05,3.802099539467685557e-03,2.448271826641099450e-03
-2.340530210516348719e-04,3.748440129059876086e-03,1.947306987340958117e-03
-1.858584721843818536e-05,4.009721440238389091e-03,2.179817969248322787e-03
8.079236106982102324e-05,3.079588950462609082e-03,2.448579858373267203e-03
1.687757395049112959e-04,3.728606527380416875e-03,2.494778087341721108e-03
-4.231716047424049338e-04,3.220504909847945151e-03,1.881989213406315116e-03
-4.985152158790143786e-05,3.692039610577137719e-03,2.234815019566267248e-03
7.397657541392023417e-04,3.665878354950415866e-03,2.336288238820407193e-03
-1.893217461315253511e-04,3.383896766842277130e-03,2.668541060324321895e-03
2.989194610763388680e-04,3.579180120580770143e-03,2.189032693144907834e-03
2.866263002791467657e-05,2.895455452593835577e-03,2.658859124229435295e-03
5.931384399803264559e-06,4.200178085418795892e-03,2.062529338070135700e-03
-4.394602375927953429e-04,3.419258576273612269e-03,2.517902208189220017e-03
-2.494159847190584948e-05,3.729687502198928035e-03,2.054207750227607203e-03
-4.469115247381975865e-04,3.782865129851251552e-03,2.443535940599305192e-03
5.276634235221542429e-04,3.699533983257500668e-03,2.252253896843563891e-03
-5.057410210415329180e-05,3.754699797995460740e-03,2.264774490498180047e-03
-5.021740321506194945e-04,4.143485223541019599e-03,2.092817684090083480e-03
-5.626034176094262679e-04,3.811363603894603064e-03,2.265945593004604301e-03
5.004043706396783201e-04,3.953634628196828031e-03,2.384396843891987104e-03
-1.875039025715776679e-04,3.917988661929156305e-03,2.194426879683822502e-03
1.274533114515181953e-04,4.006618994688450515e-03,1.998911508627253079e-03
-9.679915982007108316e-06,3.810765122855895408e-03,2.941620187444928761e-03
3.114485330153601785e-04,3.171710086298924064e-03,2.099419805918570098e-03
2.460274697277395822e-05,3.961809375695018662e-03,2.071118151756246289e-03
1.735891210865023507e-04,3.196733074514277340e-03,2.087961455623723803e-03
-8.330519140356839908e-05,3.658803908155543357e-03,2.291585165109259661e-03
4.616447844694315122e-04,3.717348646152436337e-03,2.646203709069732367e-03
3.208385521739697899e-04,3.563821081612394363e-03,2.727684704536047309e-03
-4.655890765839884224e-04,3.946434548194658470e-03,1.438512497893211766e-03
-2.840562890956211187e-04,3.455872822738640694e-03,1.736765413200249981e-03
-7.112725486646604605e-04,4.111728330742562068e-03,2.509254563338613863e-03
1.969815857937559948e-04,3.451492904005690632e-03,2.168306911726961776e-03
-3.089609513551916159e-04,3.704822996754856580e-03,2.201039174819046512e-03
-1.101587225419387335e-05,3.708036322810139788e-03,2.029458164464964260e-03
2.639458410243222548e-04,2.990260596391152836e-03,2.212251873933549374e-03
1.546771713851856215e-04,4.212289712670001275e-03,1.803572931931686800e-03
-2.766815899329367321e-04,3.230724147221462374e-03,1.741053324574517221e-03
6.528543497364549056e-05,4.213431897081661680e-03,1.891748127227767338e-03
1.687684691956305031e-04,3.767784316777057427e-03,2.149806196714762734e-03
-3.179290680081782428e-04,3.603857236358134260e-03,2.661832556499045023e-03
-1.259760340159988949e-04,3.661932961344109907e-03,2.069731753932014043e-03
2.391678672773156196e-04,3.524927528626422332e-03,2.576570977633141791e-03
4.046508628741613336e-04,3.847003645732813022e-03,2.411658155227158068e-03
-2.702444258290996799e-04,3.686454467370365532e-03,2.232814762901401406e-03
1.008973503962717509e-03,3.869437270875555803e-03,2.585090170454440017e-03
-1.513808923291499737e-04,4.083233888653790659e-03,2.363067217752692992e-03
-2.384205059614951240e-04,4.111137167898217849e-03,2.457370744221618747e-03
2.317447235336193389e-04,3.263338430289848633e-03,2.207753118855166827e-03
7.482592709763899062e-05,3.849430315954708616e-03,2.143379699595679509e-03
2.169648679060983266e-04,3.582658514841061126e-03,2.181435835692443429e-03
6.889048336351967375e-04,3.961422768009256051e-03,1.924742946673334027e-03
2.048456334281672668e-05,3.139950371336345646e-03,2.142705232546607361e-03
-3.775741995140615630e-04,3.524305457956818880e-03,2.001118035246218785e-03
3.933328326018472568e-04,3.076755029710169682e-03,2.313601783834632383e-03
2.717538518890514460e-04,3.370299764348561218e-03,2.345832300203827894e-03
-2.058523149310024667e-04,3.985285264326297698e-03,2.651282169816467343e-03
1.018341141316226651e-04,3.987529180450622400e-03,2.292767537835549343e-03
8.720080686951025748e-05,3.557236811616043114e-03,2.330586717408578666e-03
-5.068928283956987153e-04,3.775085890547904589e-03,2.222169489573175370e-03
2.116898890198806602e-05,3.340636192928801533e-03,2.013462870529051773e-03
4.113524746572591638e-04,3.738445574249756216e-03,2.331115513672279548e-03
-3.312423895328487234e-04,3.904323382473675903e-03,2.373744020129840617e-03
2.048475330331979015e-04,4.190197075288416666e-03,1.474981961704058611e-03
-2.437440074689307230e-04,4.115838216546514362e-03,2.331066271926183955e-03
-3.222627345401543673e-04,3.854133901286004200e-03,2.207703766165513941e-03
-3.652780567505287503e-05,3.900006748504642514e-03,1.773414394254151961e-03
8.424184444025521084e-05,4.269649425098552206e-03,1.598399745795485178e-03
-9.555837668102023326e-05,3.629133056325276573e-03,2.370960773309861540e-03
-1.004005621085636080e-04,3.441162598814896754e-03,2.247184162165967881e-03
2.311765892614299175e-04,3.750353962030760716e-03,2.491719836235603211e-03
-8.284037573111040892e-05,3.938331225060859482e-03,2.349668310576333383e-03
-3.581136449468314735e-04,4.095966427043231869e-03,2.161837850919334780e-03
-6.524332283807652872e-05,3.395995226661402498e-03,2.064293121214487263e-03
4.747548520161175723e-04,3.429305500451750900e-03,2.448234794425709331e-03
3.877338519712467753e-04,4.089856357350903429e-03,2.048110289258954150e-03
3.249918758068247467e-04,3.574277141775311379e-03,2.550961281457242956e-03
-4.312319322114687358e-04,3.668780071844829956e-03,2.207016320815328309e-03
3.036559403660971709e-04,4.029609908011732612e-03,2.145376627986178737e-03
6.947193403202080941e-06,3.211893653813480305e-03,2.393773980808348249e-03
1.762301640143892130e-04,3.645864044610449845e-03,2.312791131067038538e-03
4.140011590642236888e-05,3.779790728605065490e-03,2.234637354899236122e-03
-1.636289483737117826e-04,3.475371943412667967e-03,1.163530502909834079e-03
-1.262478766187616157e-04,3.869073397940359701e-03,2.074410538089229046e-03
2.727361525033347614e-04,3.394531468783749343e-03,2.173448894421132777e-03
-7.563477234725832069e-05,3.983905676000943849e-03,2.004127182016819664e-03
4.173058776686765898e-04,4.048438236376464099e-03,1.798327379867682837e-03
-4.753350984764616468e-04,3.996105431967926502e-03,2.720041687309421481e-03
2.889225583446696486e-04,3.645148426838343281e-03,2.019189532916009291e-03
1.372017585870663622e-04,4.039090154338018449e-03,2.174247399588994517e-03
8.860597612847744182e-05,4.099887649498860052e-03,2.308318805842659704e-03
-4.877927447579989998e-04,3.508020061354580853e-03,2.107210177135255234e-03
6.623253847955055300e-04,3.399896682138090712e-03,2.115203853362617945e-03
1.827205395754805540e-04,3.494777162437698401e-03,2.243835547431394933e-03
-4.564711074420650791e-04,3.686860473933416087e-03,2.491770051562204082e-03
-6.519154065698087256e-04,3.695688954129820215e-03,2.227880922261153522e-03
7.737570448268392062e-04,3.224975379512756875e-03,2.517778772869627701e-03
8.418611114933099819e-04,3.551798199925989934e-03,2.275301549703659301e-03
-1.618737166673502883e-04,3.761264221320943183e-03,2.836564150159609759e-03
4.803517138266713386e-04,3.349509597096890241e-03,2.103940121774297567e-03
-3.750046273462646885e-04,3.751818303889916783e-03,2.088687519226300505e-03
-2.464352867817726808e-04,3.867134102779336627e-03,2.725805551327983682e-03
1.684601304021634291e-04,3.999864516878506686e-03,2.694670449810562633e-03
4.730751703634317423e-04,3.468287293554537902e-03,2.925299044784946279e-03
-2.520334099861055348e-04,2.781672630093806782e-03,2.402208235327579332e-03
-5.249954880804786998e-04,4.109544769924356605e-03,2.440981335589589157e-03
5.243028042127846730e-05,4.309798735405699112e-03,1.699595069847981274e-03
1.081420245712645201e-04,4.090127565486010273e-03,2.804905125417513512e-03
-6.340626152429799500e-04,3.577779725103293930e-03,2.561379611010127389e-03
-5.622833012431348310e-04,3.949386760493548386e-03,1.963330572505121111e-03
-4.647603266347869150e-04,3.368380230747414477e-03,2.306933014933559758e-03
7.163492280322859200e-05,3.490797141379489623e-03,2.122325140572439966e-03
-2.159476554520531994e-04,3.316171806922875442e-03,2.158506128666517684e-03
3.972711732504706156e-06,3.694080138079119512e-03,2.120246803892878590e-03
4.271539743796736203e-04,3.641936831883472829e-03,2.438573435702387666e-03
-2.975025912258115793e-04,4.066288774919266276e-03,2.013890071283813005e-03
-3.612986622011307041e-04,3.578693323264603432e-03,2.794251163451296101e-03
-4.319842522980402101e-04,3.548184998750442826e-03,2.016096959812636261e-03
-1.766607485628938329e-04,3.399816433979845499e-03,1.731200333961753664e-03
1.638862187606165510e-04,4.040720823004815589e-03,2.094246482720405009e-03
2.655293256548955450e-04,3.863242414756907443e-03,2.589267908310127330e-03
-7.115721084848470246e-04,4.108291777755936069e-03,2.243990392994393932e-03
9.417522126002643977e-05,3.639962408116377991e-03,2.470023642603398888e-03
8.305237757311148723e-04,3.852556439642945783e-03,2.381957712315588109e-03
4.401460767716599830e-06,3.191876988578817940e-03,2.619027968515626539e-03
-3.461820648323386080e-04,3.800909651553659001e-03,2.538566306576493271e-03
1.389591254022674773e-04,3.349599779773212993e-03,2.363376400179185727e-03
-8.605426457077620277e-05,3.647127006465920255e-03,1.609642685942424710e-03
-4.453927824300359301e-04,3.797569289559026701e-03,2.010013093607255358e-03
-5.350434518450410040e-04,3.721451283862655789e-03,2.626217084102425679e-03
7.998206760354485375e-05,3.876094451364140141e-03,2.333733506838787681e-03
-1.439847488518117735e-04,2.987760739920602981e-03,2.527676898369619982e-03
-2.951305121474361427e-05,3.625502610399082472e-03,2.163740530471642241e-03
1.497309176774567748e-04,2.916220051157127763e-03,2.340984392333504607e-03
-4.465306117943040556e-05,3.880896887869407334e-03,2.395660231927638096e-03
1.011075206638901416e-04,3.993117835008233585e-03,2.354867991775082704e-03
-2.423452672886042389e-05,3.042706446223241139e-03,1.655519167616532677e-03
-1.240877337379973824e-04,3.525298516902604980e-03,2.234117864524056384e-03
3.503347138204799356e-04,3.313898812452705823e-03,2.566261044381489172e-03
1.332992459500444821e-04,3.496825577043615862e-03,1.638795034356657458e-03
-2.866137041863299766e-04,3.482960660353802244e-03,1.923507760415695336e-03
-7.142442128590939044e-04,3.431332595943710224e-03,1.730421352312299342e-03
-6.799366209298265615e-04,3.489516023771021408e-03,2.393957958129823687e-03
1.346162490763374632e-04,3.501449087416153103e-03,2.293142300056375763e-03
-4.437700552377684760e-04,3.627468630301915707e-03,2.658787630491652506e-03
1.170192829200782466e-04,3.414508899439278825e-03,2.500313708918375927e-03
-3.138558016222714204e-04,3.102620320512680576e-03,2.294450948782017323e-03
-2.583669688386929734e-04,3.834951126067039258e-03,2.036138466176032509e-03
1.026035938955953473e-04,3.805951664191467142e-03,2.278017605120411047e-03
-1.386415079124322762e-04,4.184685031867686929e-03,2.254802132000104185e-03
-2.063321808443899891e-04,3.951525214412522462e-03,3.083123880949893442e-03
-2.398719932221600969e-04,3.022154625722281700e-03,1.980854941929110873e-03
-1.917044827231777888e-04,3.560014369057311421e-03,2.548810607318222499e-03
-3.559485033986615424e-04,3.665128059418306349e-03,2.311591309607499787e-03
-2.604449772211815000e-04,3.496901065000709852e-03,1.606747433672375954e-03
-3.424000206936367335e-05,3.776398117674961176e-03,2.171793648884720249e-03
1.174578528882633342e-04,3.820192409317328761e-03,1.924457151131435569e-03
-2.500990407285278556e-04,3.243782922551108599e-03,2.222346782106966907e-03
1.250749271423825637e-04,3.734444594392116214e-03,2.773295779815468549e-03
3.334796545861327716e-04,3.553552102373799294e-03,2.628578645693450434e-03
-2.761895230816803276e-04,4.341263819764374157e-03,2.347010019557199244e-03
3.571878390351481292e-04,3.667034403654436704e-03,3.214701165372202407e-03
-1.434367606908609283e-04,3.663423856497154303e-03,1.976027111038559415e-03
1.206827565701991568e-04,3.178892258584412132e-03,1.911283800215899786e-03
4.429952845035382510e-04,3.386831143500144362e-03,2.643842305072095604e-03
-1.186317172250655490e-04,3.374076250215149973e-03,2.685601998611504386e-03
4.248771473525301255e-05,3.523356909538363953e-03,3.036004687039088080e-03
4.198776174231564164e-04,4.016747593507009363e-03,2.458195245908955783e-03
-8.286973154042589010e-04,3.908814473421810473e-03,2.363172917105786034e-03
5.240210658831713714e-04,3.920274227050541196e-03,2.579814898282308498e-03
-3.534245813404372923e-04,3.379940386995767144e-03,2.336171903199847980e-03
1.338028278842996386e-04,2.935884626471162422e-03,2.242996643550099634e-03
-9.133528802293825529e-05,3.417655281028214500e-03,1.569600112867459724e-03
-6.349351999944784892e-05,3.858704966386947155e-03,1.745104616790825588e-03
1.546243287260493267e-04,3.696904563115536828e-03,1.817617650955396461e-03
3.955968267936028318e-04,3.347697025872798000e-03,2.730980932174597968e-03
-2.069195581988459668e-04,3.448758637689871079e-03,2.720801673195349848e-03
-1.026510504881854812e-04,3.742923597980968992e-03,2.063002103483719835e-03
-1.597297794805663577e-04,3.864191333959433351e-03,1.952215914978769383e-03
-2.366039166248499136e-04,3.438594723917015421e-03,2.194718832328752377e-03
-3.907087405864420799e-04,3.439237737079125969e-03,2.831735816186468826e-03
-2.412234072792802654e-05,3.879454462420195513e-03,2.178946854070179778e-03
3.646799445289126800e-04,3.891929985555730477e-03,2.455265003624109571e-03
-4.850362411118867997e-05,3.898967018712380314e-03,2.432251589163295698e-03
-2.840200874197245165e-04,3.742060757845070730e-03,2.386101681276185486e-03
4.976106192464180332e-04,3.296543216678108051e-03,1.825189762881270156e-03
-2.317035761718966931e-04,3.516950660707271904e-03,1.998916783746548017e-03
1.466257289650179057e-04,2.974999848204815719e-03,2.138697536827592529e-03
1.407380205155306602e-04,3.078434831970263200e-03,2.768128560179261392e-03
-6.064496260555677460e-04,3.753364794224497720e-03,2.070383209400294272e-03
-4.429547443201174912e-04,3.017920065421838410e-03,-8.976117091554612903e-01
-2.752956310682875239e-04,3.741166071900716046e-03,-1.708077809970502958e+00
-1.651898283985511653e-04,3.440252824445488855e-03,-2.437532828460601042e+00
-5.308577241617777739e-04,3.440441639789445626e-03,-3.093289045186478958e+00
-1.405615338371425259e-04,3.829174734522562858e-03,-3.682975374446936456e+00
-1.733819663752985622e-04,4.117727032944536701e-03,-4.214409917987531173e+00
3.977083155804819205e-04,3.596836012657255409e-03,-4.692684350775342850e+00
5.311694110104637915e-04,3.606604687871069366e-03,-5.123499418039035191e+00
4.005516056220175631e-04,3.628280959894857830e-03,-5.510914347589384477e+00
1.494101599249442398e-04,3.487888803534838680e-03,-5.859576784916454173e+00
-2.148673119286567473e-04,3.159760303724722628e-03,-6.173653823637562432e+00
-3.421674893711383581e-05,3.746266055898624537e-03,-6.455664360649701727e+00
-1.947334218164175094e-04,3.915333035300627880e-03,-6.710885457000896004e+00
-1.925847959523586137e-04,3.762361747867859745e-03,-6.938920523399997542e+00
1.344612810218303710e-04,3.652690795614570423e-03,-7.144361326607392648e+00
5.748593215603124956e-04,3.329392734757029553e-03,-7.329858722941119176e+00
-2.653489456205141241e-04,3.423350926506557590e-03,-7.496980762389450881e+00
-3.236884736131892841e-04,3.602378729449022716e-03,-7.647260030327979408e+00
-6.347183074679185744e-04,3.275976772881265386e-03,-7.781869118250460460e+00
-6.202759457887348660e-04,3.989133692078023104e-03,-7.903861769287146899e+00
3.480478159837761365e-04,3.798637573342392333e-03,-8.012282163668174917e+00
-1.835948143954144998e-04,3.663871091140708663e-03,-8.111451331340447268e+00
-4.453255609397331220e-05,3.255979146881800550e-03,-8.200300352153478300e+00
-3.158574072624521236e-04,3.225910588734886598e-03,-8.279794655541103054e+00
8.796463745852022801e-05,4.016850546389148964e-03,-8.351799350769606889e+00
-3.754530185213023150e-04,3.981334887243988784e-03,-8.416529371013172778e+00
2.809467949787998746e-04,4.134923398977234481e-03,-8.474224824019515268e+00
-9.704239304492143009e-04,3.806732930345718170e-03,-8.526953478989943491e+00
-3.620286990931832966e-05,3.550949213146653832e-03,-8.573793786624850810e+00
2.127611813968250829e-04,3.386178457254441013e-03,-8.616409127512731914e+00
-4.147326228684006960e-04,3.377795495084200475e-03,-8.654436732537739374e+00
-6.987133403364462030e-04,3.317880875405171577e-03,-8.688128769192662304e+00
1.869909508612659695e-04,4.220677289884423693e-03,-8.719314415097290549e+00
-2.891659435382806288e-04,3.529270757859708299e-03,-8.747672915569244978e+00
4.944984672763012108e-04,3.194833062757899359e-03,-8.772227265513189209e+00
-6.566182475729456314e-04,4.393390070970183345e-03,-8.795263182577288674e+00
-1.215800229994427516e-05,3.865273193408000785e-03,-8.814480826701895921e+00
1.802904117597685851e-04,4.049260131928108034e-03,-8.833623622904083206e+00
-3.788663632572034524e-04,3.268331127414542646e-03,-8.849870080689594687e+00
-1.437736970697468212e-04,3.864116190262695694e-03,-8.864309451088786318e+00
4.503809480912779789e-05,3.967753681985691956e-03,-8.878449939690094439e+00
-1.877126264595910515e-04,3.589483176310114595e-03,-8.889765825964801138e+00
-8.259293260998953369e-04,3.594440954385890157e-03,-8.900436543935747125e+00
-6.094279366567299924e-04,3.285929406387547679e-03,-8.910555551757408210e+00
4.363039122854875775e-05,3.595084391207320137e-03,-8.919139477331210486e+00
-3.127423861188995710e-04,4.115100010569197435e-03,-8.927273740498607779e+00
-7.753712954834764050e-04,3.482125011942760993e-03,-8.933980357914292014e+00
-4.115196749438234346e-04,3.991090690528107873e-03,-8.940816047274902090e+00
-1.842852603533312825e-05,3.591369149689693872e-03,-8.946152947480705109e+00
2.688550655975937361e-04,3.143794910533863687e-03,-8.951318450779430336e+00
-6.645605126770363696e-04,3.668619285687007604e-03,-8.956592832765139178e+00
-8.189094236729439931e-04,3.778266990555793382e-03,-8.960016601767975430e+00
3.845224118918435109e-05,3.800031392888691354e-03,-8.964378970522602685e+00
-1.031590576575356396e-04,3.067021309447173251e-03,-8.967159549843634281e+00
-2.728812274294081428e-04,3.498731910830060396e-03,-8.970239725750715820e+00
-3.242690742766812361e-04,3.961381677610433839e-03,-8.973264440798587316e+00
-4.843598469402522126e-04,3.853880363794515412e-03,-8.975723878403425005e+00
-2.292848055359690735e-04,3.669212916037271899e-03,-8.978155580016883519e+00
-5.032164645848921647e-04,4.106562531988967001e-03,-8.979834743774212313e+00
-1.581459846849182370e-04,3.576398875863503850e-03,-8.981489835355079165e+00
-7.819194496771147236e-04,3.951334711953031174e-03,-8.983362221851706408e+00
-2.448869189542237377e-04,4.114339019510227478e-03,-8.984867068073146612e+00
-1.303209228072378634e-04,3.326250060100572302e-03,-8.985303553653926301e+00
-4.535091685506941243e-04,3.288821176869542381e-03,-8.987153745923444959e+00
-2.621893646688035835e-04,3.868809031334702591e-03,-8.988786097682151421e+00
2.474767853144090968e-04,3.976713792378395312e-03,-8.989066339941112815e+00
1.863152646076040241e-04,4.020925093554737588e-03,-8.990293536694737853e+00
-6.318571918274210183e-04,3.661609700564238696e-03,-8.991567381468540177e+00
-4.587733757401884680e-04,3.736051304151994604e-03,-8.991311759026615391e+00
-9.142763146148726733e-04,4.105735325348389836e-03,-8.992305235850992062e+00
2.606299170494813435e-04,3.293101420473974750e-03,-8.993428266005818017e+00
-3.296288087948223168e-05,3.694427098865400369e-03,-8.993203430100386697e+00
-4.840111006643338138e-04,3.583340488253212563e-03,-8.993510718370204771e+00
-1.544301032957324382e-05,3.711316120627588307e-03,-8.994093214488868782e+00
8.103048197135241085e-05,3.809675348767840777e-03,-8.994167276889445617e+00
6.569644481430262218e-05,3.245811516504814101e-03,-8.994643299500864941e+00
-1.041079093243164856e-04,3.970496731738156621e-03,-8.994937971572898761e+00
-4.337495744194189693e-04,3.249615472864659290e-03,-8.996029721500052645e+00
-3.440543635999324394e-04,3.907654300803838424e-03,-8.995526661324246831e+00
-6.076886515296260399e-04,3.081183807435030220e-03,-8.995700186608749149e+00
-4.394993705137199803e-05,2.939060868733453513e-03,-8.996238562452061771e+00
-4.719295765280185771e-04,3.416872521414298508e-03,-8.995742862948636898e+00
-8.964844656889905342e-05,3.556650056316634691e-03,-8.996905279194333360e+00
-2.916420566696641841e-04,3.122656900728409957e-03,-8.996858327656013898e+00
-1.359315468746939029e-05,3.784304868220924028e-03,-8.996546483788726789e+00
-2.585251175886691169e-04,3.637142350891024896e-03,-8.996515087372237929e+00
-6.455913541511579907e-04,3.508026883418905763e-03,-8.997143039888834792e+00
-2.877652791191537816e-04,3.982677768258561374e-03,-8.996813008611312057e+00
-5.666803231816344103e-04,3.238572787646016877e-03,-8.997311825973042687e+00
-5.571871457961193215e-04,3.900974192741750272e-03,-8.997336245025973511e+00
-5.991636554700616873e-04,3.113343439076627674e-03,-8.996917622368723499e+00
-1.922233407859979648e-04,3.665438654956609376e-03,-8.997845909333568315e+00
-1.173618302083887172e-03,3.248884216739113696e-03,-8.997558820137255609e+00
3.261933538968139930e-04,4.045937089155972853e-03,-8.997081798525890406e+00
-1.106078221657103402e-03,2.895217656618592674e-03,-8.997199022185057515e+00
-4.581487911423641501e-04,3.887441370968979220e-03,-8.997569428643101830e+00
-4.884549051983529426e-04,3.696149680890709402e-03,-8.997293625796181971e+00
-1.966918036155351508e-04,3.523144085617658551e-03,-8.997091404665059855e+00
-3.495241330423542428e-04,3.282806498751600008e-03,-8.996849889612247964e+00
-5.559481272060437778e-04,3.444611771618740891e-03,-8.997106250102913094e+00
-8.249126121814373980e-04,3.798325175605538322e-03,-8.998097784250955300e+00
-1.076053853500202363e-03,3.197105956703415273e-03,-8.997846854573074538e+00
-7.634046004387128265e-04,3.700881204494012484e-03,-8.997502136304422748e+00
-4.678273370859493551e-04,4.104200999872339994e-03,-8.997722449112604437e+00
-4.933576791143906310e-04,3.759432010023882817e-03,-8.997334629261546368e+00
-4.426404220034764925e-04,3.316250545274462055e-03,-8.996693577220868931e+00
-9.304506603594230518e-04,3.470834484888988668e-03,-8.997495944370516696e+00
-5.532866808312555777e-04,3.731796896506088448e-03,-8.997729941876718485e+00
-1.696838205806452818e-03,3.287007943427989586e-03,-8.997578310475240926e+00
-8.052051576688218186e-04,3.862581832268582090e-03,-8.997403675368451204e+00
3.669599916879637974e-05,3.682643939346807570e-03,-8.997949815480726699e+00
-8.276587363340039659e-04,3.442571809681059785e-03,-8.997593374694845991e+00
-7.115461347100274963e-04,3.099862682061418732e-03,-8.997624104204358986e+00
-9.117853466347691999e-04,3.687069241340287448e-03,-8.997462162790109019e+00
-3.847474399068231076e-04,3.727375334085362459e-03,-8.997797882283974147e+00
-6.911926192222066917e-04,3.243909750164843120e-03,-8.997797179051941541e+00
-1.110121081013404690e-03,3.533318434507465300e-03,-8.997999756061956234e+00
-8.423062929751726820e-04,3.894537923856596692e-03,-8.997880808288966747e+00
-8.850975264899387223e-04,3.850966619315539761e-03,-8.998260198970779555e+00
-3.592483403589556462e-04,3.154480156172487140e-03,-8.997751237022775683e+00
-1.106827436205318508e-03,3.481858734773348070e-03,-8.996854407056753544e+00
-6.190083483982604298e-04,3.483424719747542538e-03,-8.998093986756487084e+00
-5.637614539345484500e-04,4.259894678837793450e-03,-8.997063327444148939e+00
-6.404911937176850992e-04,4.227313898324363585e-03,-8.997203911273164323e+00
-6.400089820651900900e-04,3.227322523676253319e-03,-8.997716537542096660e+00
-7.428177996690887592e-04,2.953750480709757369e-03,-8.997458366205771441e+00
-8.715352643924495534e-04,3.248674975180958994e-03,-8.997792113682850257e+00
-9.987818104039715948e-04,3.491686209496385872e-03,-8.998514906979281136e+00
-8.516795696109502470e-04,3.452294670542072237e-03,-8.997559480937766807e+00
-3.674769650154631451e-04,4.016253430125207163e-03,-8.997731360404232603e+00
-7.981403473050058522e-04,4.041074797825118872e-03,-8.997898998752560829e+00
-5.209213768290361099e-04,3.800371640151447780e-03,-8.997577494102396045e+00
-1.448926623739413755e-03,3.863747081339290179e-03,-8.997729655547656691e+00
-4.986627219244521613e-04,4.405424041982862297e-03,-8.997688239028059698e+00
-9.633141785423248588e-04,3.493354085073467966e-03,-8.997309597139926396e+00
-1.157824284654190416e-03,3.605522286394264968e-03,-8.998119867335038435e+00
-1.135984786007935914e-04,3.335277893049199902e-03,-8.996904628419182259e+00
-1.245372870787353481e-03,3.606069216123485369e-03,-8.997691469265900466e+00
-8.131386428083982321e-04,3.107348582739488402e-03,-8.997670610805153402e+00
-4.527353239933794423e-04,3.860404548649866863e-03,-8.997877333148220913e+00
-1.054411158638337166e-03,3.145360815827957963e-03,-8.997473042747824223e+00
-2.205576837341838227e-04,3.915665348241370233e-03,-8.997753430078423875e+00
-4.918555928361670109e-04,3.694308004939828808e-03,-8.997562972886399280e+00
-6.314477639451285523e-04,3.521949316876889224e-03,-8.997947724815396953e+00
-5.239468276259271699e-04,3.127366032477961206e-03,-8.997752207662912838e+00
-4.277925292128468030e-04,4.398115638305549226e-03,-8.997674752625950845e+00
-9.004216473925685804e-04,2.868725627744506904e-03,-8.997419009016718761e+00
-1.288155808797707006e-03,3.306881407224586747e-03,-8.997612458552735504e+00
-4.454259057816846814e-04,3.225600018991646705e-03,-8.997598313053707386e+00
-1.557015561639744613e-03,3.828331105094409659e-03,-8.997070658597628778e+00
-6.622593845593290453e-04,3.450803325420958526e-03,-8.997294469629093072e+00
-7.588878930124062913e-04,3.559271159914932127e-03,-8.997918088041451767e+00
-9.698608185164337911e-04,3.138414180067884609e-03,-8.997555342016633873e+00
-6.309214626945760119e-04,3.478699102599498369e-03,-8.997640488352608656e+00
-5.273455126937136826e-04,4.176046375393507176e-03,-8.997804839031267932e+00
-1.015195748444378508e-03,3.626411755571469931e-03,-8.997781872804260672e+00
-3.508072311075571543e-04,2.975150393327778090e-03,-8.998064794161027891e+00
-7.264749749403217900e-04,3.758361719008622166e-03,-8.998220925911375900e+00
-1.119359840130199025e-03,3.550704381180382844e-03,-8.997765103880841053e+00
-1.730064063836481798e-03,2.945586015380334197e-03,-8.997860458770245984e+00
-6.137150202651070040e-04,3.629191989002096726e-03,-8.997664902793815145e+00
-1.040624470022738588e-03,3.870403757176560291e-03,-8.997335163997140839e+00
-4.243422312949117958e-04,3.455695168872529623e-03,-8.997984015302149530e+00
-1.164451809027890628e-03,3.188923079476396576e-03,-8.997950137336449217e+00
-8.529747540818239434e-04,3.128751593816569629e-03,-8.997688819876543675e+00
-1.100295185723677589e-03,3.674768547988884002e-03,-8.998119093457619400e+00
-7.268977410383215291e-04,3.517921854178779166e-03,-8.997748597116807190e+00
-5.348318271617880006e-04,3.779352063270495759e-03,-8.997403808885628962e+00
-5.315898794335590250e-04,3.365035058929079659e-03,-8.997649170385576767e+00
-1.408544889043245344e-03,3.334706721778046834e-03,-8.997996877180181485e+00
-9.538686038265652145e-04,3.062852342824022231e-03,-8.998287465060005985e+00
-1.900076547387618902e-04,3.450161831758284843e-03,-8.997154019436781169e+00
-4.711853794745688427e-04,3.394476665828503447e-03,-8.998527218544172257e+00
-7.535538019588068842e-04,3.101268072328339405e-03,-8.997858123952083176e+00
-8.186708808668061122e-04,4.071088201397233576e-03,-8.997155448406534362e+00
-1.902470698219424841e-03,3.718162549033476351e-03,-8.997998112391979220e+00
-6.476419663809258181e-04,3.893475953992524708e-03,-8.997825418452602975e+00
-8.236245708510120909e-04,3.775312122386293226e-03,-8.998178274847896674e+00
-6.894251122581309798e-04,3.774938232394225209e-03,-8.998080413039017955e+00
-1.572530965000221159e-03,3.605858934609412845e-03,-8.997431209582565259e+00
-1.228698511570252812e-03,3.281718719400688201e-03,-8.998037015759830837e+00
-1.371161962667689568e-03,3.461382813978538045e-03,-8.997299706184255896e+00
-9.846010082068651879e-04,3.875960844208937040e-03,-8.998412476543911964e+00
-1.265151926277534441e-03,3.298426907289242135e-03,-8.997184852137616318e+00
-1.034353231685284247e-03,3.871146931869380494e-03,-8.998460441566098922e+00
-8.862987288196984845e-04,4.170255497422223519e-03,-8.997864006560700290e+00
-1.210217771513403704e-03,3.646068240408638882e-03,-8.997440071075780921e+00
-6.603392240786481278e-04,3.378906602505011691e-03,-8.997984934365355514e+00
-1.196273063843074792e-03,3.259553077284941570e-03,-8.997261058454480320e+00
-1.118149366482885845e-03,3.575055043991298611e-03,-8.997337999062157365e+00
-1.639960542770025958e-03,4.042506567219212102e-03,-8.998389123989516847e+00
-1.323346089462474088e-03,3.155330260526514885e-03,-8.997874540242204233e+00
-9.531453410340619617e-04,2.872355980520907570e-03,-8.997220121568776818e+00
-1.072793893503243019e-03,3.633686662446056898e-03,-8.997277909880287083e+00
-1.237220197018200829e-03,3.467525835642970133e-03,-8.998153766690979438e+00
-9.409703440082827549e-04,3.497957638549492685e-03,-8.998190686980358066e+00
-1.313994051093791927e-03,3.542721902519297555e-03,-8.997459405151024825e+00
-2.466458871313209665e-04,4.018748956688415058e-03,-8.997870699087979318e+00
-1.409602105543137415e-03,3.699272267011256832e-03,-8.997940810093286501e+00
-5.026656714091644980e-04,3.409027659635402527e-03,-8.997613932717403173e+00
-1.441482196738860019e-03,3.026064316605734002e-03,-8.997705405295400638e+00
-8.940526166933696539e-04,3.371735917133410719e-03,-8.997971919583541478e+00
-7.523567013464899219e-04,3.200388363088709030e-03,-8.997928539790867930e+00
-6.965094850499672008e-04,3.573197804071533059e-03,-8.997013390015299095e+00
-9.726652515830903510e-04,3.672796768709773226e-03,-8.997226794600747368e+00
-6.634613240102912087e-04,3.131279252039077809e-03,-8.998345534702542281e+00
-1.162854658744107714e-03,3.508949099933223511e-03,-8.996973141528490814e+00
-1.199651808482596555e-03,3.734144128767952035e-03,-8.998486845023712988e+00
-1.085281409183835909e-03,3.060160239930937668e-03,-8.997972618219687746e+00
-6.678795193606633287e-04,2.993687186378764069e-03,-8.998077527715578228e+00
-1.436783257475802902e-03,3.597142139951110817e-03,-8.997553974732159787e+00
-1.031353289425285431e-03,3.795251625146863449e-03,-8.997970374182763464e+00
-7.535064731995566112e-04,3.398428319203894866e-03,-8.997559054120259248e+00
-1.359203324918660787e-03,3.231767033070920541e-03,-8.997458025591225095e+00
-9.507905635279976717e-04,4.257206190879382103e-03,-8.998065365461684451e+00
-9.720609630928846992e-04,3.901746312067428529e-03,-8.997711747948082817e+00
-9.699132804524247201e-04,3.127958239523443741e-03,-8.997839648038057803e+00
-1.004007972834379580e-03,3.356496503043308009e-03,-8.997383618498224322e+00
-1.431428594764764780e-03,3.719534965289870206e-03,-8.997317890804350071e+00
-1.111243195767929685e-03,3.584338173734227806e-03,-8.998054594892808566e+00
-1.360266508659246833e-03,2.978048510983607490e-03,-8.997780033306074898e+00
-9.967730753195334394e-04,3.369493435507484556e-03,-8.998320738064750302e+00
-1.539580047418486483e-03,3.651926481876331589e-03,-8.997305343983670767e+00
-1.225266875424256335e-03,3.414136218041854444e-03,-8.998637003872405060e+00
-1.247201029897321680e-03,3.609855252646978780e-03,-8.997177184456102594e+00
-1.000823621564577662e-03,3.418877683323552109e-03,-8.997332677890844010e+00
-1.103799083689066670e-03,3.082003705247883790e-03,-8.997570735010938847e+00
-1.355979067185282072e-03,3.311664144473486313e-03,-8.997897785225989153e+00
-1.169743350602301746e-03,3.341844525964507255e-03,-8.997555874810723608e+00
-1.372638426815229887e-03,3.360179604331303780e-03,-8.997768172774451401e+00
-9.741704090573148275e-04,3.200968593348365449e-03,-8.997477746669854781e+00
-1.155348883089801423e-03,3.354868422909645237e-03,-8.997279200654848097e+00
-4.974538741150842658e-04,3.290422736297933092e-03,-8.998008876178825943e+00
-1.022829483246885706e-03,3.486888250921131149e-03,-8.997557665917128134e+00
-2.034167876418630297e-03,3.435924244301805704e-03,-8.997619613223177382e+00
-7.232967213706689366e-04,3.756871414554694994e-03,-8.997810807035687475e+00
-1.291090564845748679e-03,2.779983823579875064e-03,-8.998149120658318623e+00
-5.240954518905378227e-04,3.546065150443773913e-03,-8.997839020710411972e+00
-1.173791168676562935e-03,3.510439906493786465e-03,-8.997407213018513872e+00
-1.440630791938011081e-03,3.664405349758757466e-03,-8.997950497804161785e+00
-1.096536621097470498e-03,2.927583810158292544e-03,-8.998163232199139827e+00
-1.728462576140873128e-03,3.387811006277030232e-03,-8.997621012904669868e+00
-1.406274722346423237e-03,3.197014915890580584e-03,-8.997871221868519953e+00
-1.209999192257881504e-03,2.781808365915461323e-03,-8.997472653010062160e+00
-6.515345386893082753e-04,2.923451280382361513e-03,-8.997546506295117652e+00
-1.163163712132706147e-03,3.184307162697707239e-03,-8.998237722071962708e+00
-1.634948987918280168e-03,3.464248793434514771e-03,-8.997240578891865681e+00
-1.355219329119212741e-03,3.974767307202146244e-03,-8.997659032756574859e+00
-8.423967076660931813e-04,2.862348039983356705e-03,-8.997340738895857726e+00
-1.433018266331875703e-03,4.037017577386343981e-03,-8.997632731561349573e+00
-7.452531321541006797e-04,2.987049935674379857e-03,-8.997960808886157125e+00
-7.115423187358459970e-04,3.983161247115738282e-03,-8.997827491864047289e+00
-1.736864245896955214e-03,3.801011594789462881e-03,-8.997397296793073096e+00
-1.812531890247483408e-03,3.426402660522984232e-03,-8.997670104138141056e+00
-8.033367038064848607e-04,3.519020858134074524e-03,-8.997754469032630098e+00
-1.013229304790075596e-03,3.634166502316148618e-03,-8.997796790444832382e+00
-1.007331506508608691e-03,3.249214098144703137e-03,-8.997803121133776116e+00
-1.264466023903176211e-03,3.229832974983006845e-03,-8.997178192184145828e+00
-1.708931240368195305e-03,2.906548168129931102e-03,-8.997426584814062878e+00
-1.358225750974721658e-03,3.101906232237711895e-03,-8.997882800197933406e+00
-2.017140804068829913e-03,3.971796413588724560e-03,-8.997663763383503266e+00
-1.193328680989332209e-03,2.979901645315514210e-03,-8.997755776383392856e+00
-1.325203636659577329e-03,3.557043688683717009e-03,-8.998033241702858120e+00
-1.238992168931315942e-03,3.450565776529212515e-03,-8.998266431648298536e+00
-1.380946143310181080e-03,3.818140768272776809e-03,-8.998159744508408053e+00
-1.233217414506300805e-03,3.154721901238328845e-03,-8.997544547657724934e+00
-1.433320528970737084e-03,2.854918962514337456e-03,-8.997522007869948268e+00
-1.049853638104275696e-03,3.519745641701522987e-03,-8.997816470149537338e+00
-1.600309929951360772e-03,3.937710262390494396e-03,-8.998125592825079622e+00
-1.766459261786348630e-03,3.336722884211680736e-03,-8.997890217356310671e+00
-1.889863478692339329e-03,3.272083272278906736e-03,-8.997561839929650418e+00
-8.827574074271580563e-04,3.773085178771382921e-03,-8.997868633587541964e+00
-5.380019709980147146e-04,3.478897034711177401e-03,-8.998071196805105032e+00
-1.401709463382820944e-03,3.610931975763097875e-03,-8.997254766496602940e+00
-1.192469765518296577e-03,3.474299864787743723e-03,-8.997668522923754963e+00
-1.592208141547583238e-03,3.205300637840058885e-03,-8.998004070498133444e+00
-2.138236842028752235e-03,3.257537041256235427e-03,-8.997737986138215405e+00
-1.590272490230431983e-03,3.373139993920988740e-03,-8.997534670686452074e+00
-9.275194199296303696e-04,3.195552473363905306e-03,-8.998014154938463349e+00
-1.413339344103959738e-03,3.042780535589253207e-03,-8.997941970979560722e+00
-1.108498418105625287e-03,3.582202460905778429e-03,-8.997843806068075878e+00
-1.766709932682950608e-03,3.744731915480260884e-03,-8.997261438140231604e+00
-1.477239688525312919e-03,2.986468403449911001e-03,-8.997756007871306139e+00
-1.807335053663948260e-03,3.273802249037528148e-03,-8.998245088594924113e+00
-1.785141668359429938e-03,2.867814515763644247e-03,-8.997575121388143415e+00
-1.111932211228594666e-03,3.163818277177190153e-03,-8.997867597965147013e+00
-1.427447443319064709e-03,3.211929946544170821e-03,-8.997221280310554903e+00
-1.498966182628118588e-03,4.289394068836457560e-03,-8.997675303982163086e+00
-1.637414804016698719e-03,2.740005993959714232e-03,-8.997269491278814257e+00
-1.844736131308292179e-03,3.489332751294392521e-03,-8.998230390314878591e+00
-1.830282656212099332e-03,3.056702891301067791e-03,-8.998158439128060238e+00
-1.479668646797020846e-03,3.334328530847520140e-03,-8.997629880412606695e+00
-1.920372834455034202e-03,2.972882478634203494e-03,-8.997697544614158716e+00
-1.695081717005038650e-03,3.024071871973409414e-03,-8.998145272367109371e+00
-8.190142962761403017e-04,3.702003568066726622e-03,-8.997668073296720692e+00
-2.028213905332264949e-03,3.119816972679322585e-03,-8.997305504973079238e+00
-1.617271712125043165e-03,3.254164671467995283e-03,-8.997496191822959233e+00
-1.495513025968947226e-03,3.217024302925353390e-03,-8.998248779655556362e+00
-1.206382803386371085e-03,3.340295156379343138e-03,-8.998067368734766092e+00
-1.399951088464303998e-03,3.154786077690093209e-03,-8.998163363910032686e+00
-1.504879369426546411e-03,3.510732008045120908e-03,-8.997848183305396930e+00
-1.753108202924874353e-03,3.253137088041682147e-03,-8.997536111128690450e+00
-1.651889812705810553e-03,3.548268604045035166e-03,-8.998128836031636268e+00
-2.178830316440843670e-03,3.132699928192521615e-03,-8.998156896188266529e+00
-1.513953921564638143e-03,3.565214470597928391e-03,-8.997388851193994341e+00
-1.410092767197521383e-03,4.079431816104748566e-03,-8.997564052525502731e+00
-4.833879110764095180e-04,2.960709926922188914e-03,-8.997851719364257761e+00
-2.180480740019929715e-03,3.925441704716952328e-03,-8.998038360191889851e+00
-1.708443440815456430e-03,3.338267343618064355e-03,-8.997967472938753986e+00
-1.599514686500240349e-03,3.245483645235890720e-03,-8.997433306375222983e+00
-1.891122967814233341e-03,2.977053322774441627e-03,-8.997844213200945518e+00
-1.774162027863795824e-03,3.982978263688236910e-03,-8.997322367205409677e+00
-1.242248450670633457e-03,3.413867125734653275e-03,-8.997862561617022692e+00
-1.915943764416716153e-03,3.009792560683805657e-03,-8.997945045801099440e+00
-1.623264032449559446e-03,3.732883001580896646e-03,-8.997890501456835111e+00
-2.064304430677457117e-03,3.067913245908402385e-03,-8.998120976692943529e+00
-9.265349116914585632e-04,3.451981420264476665e-03,-8.997636972632047758e+00
-1.558800062612440565e-03,2.494186275593936793e-03,-8.997972314431772034e+00
-1.211732657912710726e-03,3.380211508113833280e-03,-8.998094138673346620e+00
-1.360936635899000647e-03,2.370729233473934001e-03,-8.997416856618016823e+00
-1.358393791280255135e-03,3.205695121659027196e-03,-8.998062071381649929e+00
-1.528086604821736862e-03,3.321413571982606734e-03,-8.997973051132628797e+00
-1.830686526894087810e-03,2.729539310780338540e-03,-8.996719742358408212e+00
-1.258919571654500916e-03,3.149882244228598398e-03,-8.997798110915532277e+00
-8.854036773786849290e-04,3.398222821701253268e-03,-8.997407618326901613e+00
-1.736906154386574789e-03,3.776506911113296575e-03,-8.997424141865099756e+00
-1.255388299410110930e-03,3.358643869007337576e-03,-8.997418123678016855e+00
-1.321744121882619362e-03,3.406087777525503100e-03,-8.997639644770799805e+00
-1.374283175427770416e-03,3.222984316762824222e-03,-8.997544605974811205e+00
-1.710938243884844133e-03,3.277088022688558547e-03,-8.998130542509244378e+00
-2.134175460401195341e-03,3.432217778804369946e-03,-8.997856097413079013e+00
-1.851886813589232730e-03,3.141677095901376088e-03,-8.998091524775382766e+00
-1.600641763491402131e-03,2.984132155875161320e-03,-8.997253121952292432e+00
-2.038719187512598365e-03,2.961020173775706036e-03,-8.998198110190225307e+00
-1.975255603116433077e-03,2.738713273391897053e-03,-8.998057954590688468e+00
-2.059285764789827496e-03,3.012478539456197452e-03,-8.997924850342171155e+00
-1.787464158084805339e-03,3.296219445139610474e-03,-8.997535283734862332e+00
-1.871251712624067386e-03,2.940175383781363193e-03,-8.998311280371787291e+00
-1.316911595985371768e-03,2.922618440792299020e-03,-8.997691713201957597e+00
-1.943330021436764964e-03,3.270690230004522081e-03,-8.997463784821452037e+00
-1.554931122640525621e-03,4.010038590279320705e-03,-8.997534126487416017e+00
-1.928432423070064548e-03,3.318364751699403974e-03,-8.997763664800066508e+00
-1.703647110721198243e-03,3.089820893784698663e-03,-8.998059378914947004e+00
-1.713607008497781709e-03,3.400013243508975044e-03,-8.998051123047263289e+00
-1.732087020432937887e-03,3.191637515775876642e-03,-8.997564408228035049e+00
-1.691198631334631585e-03,3.322959568187292250e-03,-8.997333563450437666e+00
-2.034728031825165737e-03,3.388471943225526001e-03,-8.997263564767603583e+00
-2.103915218538411798e-03,2.651228458449209416e-03,-8.997585684822213992e+00
-2.053065993261157969e-03,3.082881570760852199e-03,-8.998141090133527698e+00
-1.235752819249009028e-03,2.955957890865843710e-03,-8.997674116130699673e+00
-2.279187847653435083e-03,2.944475228751045233e-03,-8.998152566073303049e+00
-1.639127189484977610e-03,3.305240045721164355e-03,-8.997918858049029467e+00
-1.799637914097897400e-03,3.156410613885817298e-03,-8.997153984722716658e+00
-2.321934219640111978e-03,3.033082448131209970e-03,-8.998184283119440963e+00
-1.785827958056279306e-03,2.985832151086484365e-03,-8.997596950142893846e+00
-1.748353641510545656e-03,2.933932989320564913e-03,-8.997078268461091710e+00
-1.736118920284463688e-03,3.645219245434004607e-03,-8.997415772759906005e+00
-1.123133200642778551e-03,3.227895401090187695e-03,-8.998297940658067873e+00
-1.783095475835810807e-03,2.630933778611216529e-03,-8.997534205395188778e+00
-1.948010759394047230e-03,2.948716127190690803e-03,-8.997549435673127149e+00
-1.831502103059668698e-03,3.212133230822894047e-03,-8.997662829212258018e+00
-2.084248060495579816e-03,3.021589755734839164e-03,-8.998023023952189448e+00
-1.882082168643328885e-03,3.112212354738629581e-03,-8.997669423185552517e+00
-1.445999858471122643e-03,3.917766963227632682e-03,-8.997403358549616925e+00
-1.820041071649512385e-03,3.235951219940462475e-03,-8.997941079287569366e+00
-1.628710733707009221e-03,2.552402194663760861e-03,-8.997417662180405173e+00
-1.517081905987144015e-03,3.422674469198487036e-03,-8.997549938364846511e+00
-1.340187060582918952e-03,2.853086946361727168e-03,-8.997729367860454630e+00
-2.180567341922299510e-03,3.263645681469602450e-03,-8.998289393679449688e+00
-2.419949948777258813e-03,2.835030225072658963e-03,-8.998209002219105912e+00
-2.314519234582696275e-03,3.378651473541516639e-03,-8.997567760865674558e+00
-2.080380405348258594e-03,3.242698377081944250e-03,-8.997933480242995330e+00
-2.174911927150286958e-03,3.391370708105714143e-03,-8.997566918428040239e+00
-1.828810444661642300e-03,2.954358672685848675e-03,-8.997072078621043190e+00
-1.858576627500392597e-03,3.190710817723910100e-03,-8.997549192938622653e+00
-1.202118893008678139e-03,3.081273132459541857e-03,-8.998063893227985943e+00
-2.063201961811923692e-03,3.434156832192938533e-03,-8.998388034394288582e+00
-1.838208854867952281e-03,2.628669815056244863e-03,-8.997913562930413889e+00
-2.214934016435834464e-03,3.465393432658990438e-03,-8.998037587281347172e+00
-1.997450492680731722e-03,2.259366675254620514e-03,-8.998068489901289269e+00
-1.737400306562594809e-03,3.304222929502954528e-03,-8.997418921209980880e+00
-1.665309323442442551e-03,2.644605735920184993e-03,-8.997840139289449368e+00
-1.710112011977113705e-03,2.956212524815475095e-03,-8.997747886824408070e+00
-1.952446636822741501e-03,3.346359466260888111e-03,-8.997213523902605203e+00
-2.091132635964373064e-03,3.362900049108021299e-03,-8.997427567373174284e+00
-1.839047750260453277e-03,3.029507569031494093e-03,-8.997953465901138870e+00
-2.060213730189424525e-03,2.919217178054012499e-03,-8.997379756423635300e+00
-2.268958397857651944e-03,3.509321258412840747e-03,-8.997121541893069008e+00
-2.634318435312655790e-03,3.377307606159673636e-03,-8.997701618725333361e+00
-1.442028326263874788e-03,3.339071686496579948e-03,-8.997783937722527270e+00
-2.174202936018568722e-03,2.701544264822051608e-03,-8.996790871446297189e+00
-1.941842131203968961e-03,3.064770904682978785e-03,-8.998022008601836319e+00
-2.115657968545061815e-03,3.069704697744269836e-03,-8.997221615785202076e+00
-1.682485046325139962e-03,3.038367117715843300e-03,-8.997607122338171948e+00
-2.128543320295330291e-03,2.740952583578645102e-03,-8.997940341199049286e+00
-1.818988008880814385e-03,3.117012788441815042e-03,-8.997756795710971645e+00
-1.768136910472638702e-03,3.145309855558245122e-03,-8.997287777505261985e+00
-1.831322971845548726e-03,3.160307228693007026e-03,-8.997899384795012168e+00
-2.224256313184126612e-03,3.423502544148843314e-03,-8.997917158067853194e+00
-2.351660747405415978e-03,2.466281215288822215e-03,-8.997459437870311660e+00
-2.105757331661642796e-03,2.500463282433056621e-03,-8.997053616336250670e+00
-2.108684291183323539e-03,2.925965602984339966e-03,-8.998050252278737560e+00
-1.941841241546738480e-03,2.754555623842306917e-03,-8.998054141393941663e+00
-2.178829364258275201e-03,3.238278775536590492e-03,-8.997690734328305240e+00
-1.926135799481619405e-03,2.893430380473279839e-03,-8.997181172875356125e+00
-2.563301850161754832e-03,2.509578343915992629e-03,-8.997382745318514452e+00
-2.005987138676770462e-03,2.573955379433617071e-03,-8.997784139905903089e+00
-2.081692108754205298e-03,2.912971024017598984e-03,-8.998004864099668154e+00
-1.734572951190619522e-03,2.585012860915353577e-03,-8.997597848526666553e+00
-1.653924366267822254e-03,2.447178159541676685e-03,-8.998090085980452457e+00
-2.574288451499114668e-03,3.109845529323274418e-03,-8.997970590977478977e+00
-2.509300122805326570e-03,3.491054655499318832e-03,-8.998049885458245356e+00
-2.239382909437268813e-03,2.835604888211080456e-03,-8.997588335471544241e+00
-2.336082401325941839e-03,3.432212867806832927e-03,-8.997693866102570937e+00
-2.263922467403910524e-03,2.963920410816858492e-03,-8.997655008741432425e+00
-2.509437978184622491e-03,2.749852906198542099e-03,-8.998232844898900851e+00
-2.684344388815743023e-03,2.868105421678306122e-03,-8.997288597237087515e+00
-2.108278467180680748e-03,2.762447020301227185e-03,-8.998055274018113892e+00
-2.587266335291306396e-03,3.129860518904657891e-03,-8.997345371426206384e+00
-1.663189702703166519e-03,2.983120161757722797e-03,-8.997700775274886098e+00
-2.106413556513306480e-03,3.568393048308095370e-03,-8.998398202451852512e+00
-2.396881593903429485e-03,3.233864661284910000e-03,-8.997415775864016751e+00
-2.401615117908055888e-03,2.579160085104731468e-03,-8.997874662623550179e+00
-2.191817914871222166e-03,3.199680792544384172e-03,-8.997267453648849056e+00
-2.213406216822835521e-03,2.982416164399358596e-03,-8.997951605379672202e+00
-2.676284500325970019e-03,2.738342584652048942e-03,-8.997950303069423228e+00
-2.008438666091571633e-03,3.301890760585484384e-03,-8.997510034741550200e+00
-2.504356787520024569e-03,2.752022073745718101e-03,-8.997248439182532920e+00
-1.671363430715036048e-03,3.091555672793455233e-03,-8.998063860523034307e+00
-2.559297693770321448e-03,3.503615421065440615e-03,-8.997454428220947875e+00
-2.239870433247004820e-03,2.831869273920632583e-03,-8.998051868038873025e+00
-2.494357492211906214e-03,2.398763390872830567e-03,-8.998027606439226389e+00
-2.348529957185767954e-03,2.797721240100553997e-03,-8.997757920856173541e+00
-2.052934746246851822e-03,3.017268415800726782e-03,-8.997829732757425703e+00
-1.752518107070003472e-03,2.414732417627722932e-03,-8.998018444969316576e+00
-2.415242894032072936e-03,2.753874972091223828e-03,-8.997871986845572323e+00
-2.685505335439385393e-03,3.348854908937732005e-03,-8.998347254134435147e+00
-1.974937596349806736e-03,2.351535285547589130e-03,-8.997834888239578888e+00
-2.204150361264178935e-03,2.422268017344840398e-03,-8.997644509447223271e+00
-2.415959960452892206e-03,2.491720050728137622e-03,-8.997272642170980106e+00
-2.366505166310004047e-03,3.440555715246641517e-03,-8.998363809432555982e+00
-2.272299565306052163e-03,1.981048344437367961e-03,-8.998370534038913959e+00
-2.062643526892452700e-03,2.623888647698015449e-03,-8.996918745454111743e+00
-2.274964113233249145e-03,2.709938436197204068e-03,-8.997736139754941576e+00
-2.058140256421557134e-03,2.870273553140272743e-03,-8.997412803033789430e+00
-2.675381793868831896e-03,2.386365976061367248e-03,-8.997668891116523682e+00
-2.154637509509953804e-03,3.054356753438971627e-03,-8.997174620335727013e+00
-2.006463881582242099e-03,2.814801412303788355e-03,-8.997650555461801147e+00
-2.197360470792289900e-03,2.603590128159915217e-03,-8.997683781377336487e+00
-2.131050774700021366e-03,3.267087733454582341e-03,-8.997583855546256615e+00
-1.943118563165065985e-03,3.778292644289887436e-03,-8.997412066002496545e+00
-2.119099682388638807e-03,2.398427849380643361e-03,-8.997670312703975881e+00
-2.514220736010794148e-03,2.933602572208435146e-03,-8.998200864028078172e+00
-2.067014212919826566e-03,2.311614562785490982e-03,-8.997933665185859908e+00
-1.808939305968932558e-03,2.405125556840740329e-03,-8.997585841238125326e+00
-2.719524334956075536e-03,3.052245099942986050e-03,-8.998099577001806182e+00
-1.674414923184284597e-03,2.958049358950085288e-03,-8.997602499804791876e+00
-2.263970604859626493e-03,2.594481343399301660e-03,-8.997702904928116752e+00
-2.365982891494132836e-03,2.186777208908669435e-03,-8.997892503063173564e+00
-2.432103923267370238e-03,2.645952908653675332e-03,-8.998159986140459310e+00
-2.253117138796923401e-03,2.833126425253224608e-03,-8.997767714130546324e+00
-2.605272784310210150e-03,2.420933954353951881e-03,-8.997005176820334071e+00
-2.521265434824415154e-03,2.829587992437397614e-03,-8.997566562042772276e+00
-2.308424632539521522e-03,2.920057611645188265e-03,-8.997729711126867258e+00
-2.234978583461310394e-03,3.122073867150963831e-03,-8.998734660371619398e+00
-2.143588742456984005e-03,2.529773655582032155e-03,-8.997240673310868075e+00
-2.557466905920338738e-03,2.435967962529116126e-03,-8.997955755753526574e+00
-2.232744480536875964e-03,2.835885328949352795e-03,-8.998191645252710202e+00
-2.773094291910437915e-03,2.393546184120269680e-03,-8.998019769803816459e+00
-2.128400704702353239e-03,2.934825432798275797e-03,-8.997747595432942447e+00
-2.653447423712272484e-03,3.053500164416328867e-03,-8.998202495776087773e+00
-2.704764206644741376e-03,2.571586550878540971e-03,-8.997800807325480932e+00
-2.375377391310792060e-03,2.737610333768843857e-03,-8.997797717042272936e+00
-2.374311780407934933e-03,2.946480158855553297e-03,-8.997629645094084694e+00
-2.245708151506054136e-03,2.292247825608011071e-03,-8.998004769064822383e+00
-2.073952422808694740e-03,3.128527734456306407e-03,-8.997820888200751099e+00
-1.996405371225404290e-03,3.374326338405123343e-03,-8.997462344330021011e+00
-2.729668305291562628e-03,2.605394934463781554e-03,-8.997819315475345192e+00
-2.446030662628298231e-03,2.458552127902167289e-03,-8.997520144968239819e+00
-2.574375543643572274e-03,2.972693536511593609e-03,-8.998138191994920376e+00
-2.624102751694625500e-03,2.595616196986409632e-03,-8.997698354133714105e+00
-2.748635142010198446e-03,2.803003740021193287e-03,-8.997832640449676234e+00
-2.495565841547832224e-03,3.159565806445182798e-03,-8.996994517900521515e+00
-1.884337952661797357e-03,3.316822248313339161e-03,-8.997877261446427966e+00
-2.463162413320644280e-03,2.878915244230481445e-03,-8.997631710763307922e+00
-2.737599235998231656e-03,2.715652064706757570e-03,-8.998524258667538689e+00
-2.724410438480250832e-03,2.517591437072304577e-03,-8.997786873803086394e+00
-2.285477693056703775e-03,2.549180484357973717e-03,-8.997815729660283424e+00
-2.979306552797517538e-03,2.416397687441484195e-03,-8.997800825669930447e+00
-2.470890808127263350e-03,2.752466837597660788e-03,-8.997940586237611171e+00
-2.015685066971851375e-03,2.980950420684579192e-03,-8.998027977832844471e+00
-2.209803821539645108e-03,2.139625371602835776e-03,-8.997781334965564426e+00
-2.340439808889431279e-03,2.745753538828925137e-03,-8.998245235948301612e+00
-2.829803969680205582e-03,2.982506216833545262e-03,-8.997937305493524107e+00
-2.121573197844664124e-03,2.312227834251993474e-03,-8.996884996913648180e+00
-2.019524512688877001e-03,2.870069484042527680e-03,-8.998076429794034325e+00
-2.663621287737092530e-03,3.211088635409861409e-03,-8.997559898459869032e+00
-2.471150406821885290e-03,2.223001405167560150e-03,-8.997891627051108898e+00
-2.243636284586640085e-03,2.807392217663978989e-03,-8.997866659875397133e+00
-2.522071574917346230e-03,2.914047663888253738e-03,-8.998056001700321715e+00
-1.049425399243955918e-03,2.328400372398722103e-03,-8.998201172145206428e+00
-2.333565494066117997e-03,2.759435005454894535e-03,-8.997701883108963017e+00
-2.946620610067412441e-03,2.639780860344398579e-03,-8.998074653172023929e+00
-2.382947589354431420e-03,2.327115579790855343e-03,-8.997460502491440693e+00
-2.471817275266146533e-03,1.633643999599743851e-03,-8.997205052149263693e+00
-2.687351200048773703e-03,2.640776939398145704e-03,-8.997677891725219368e+00
-2.741994348314933522e-03,2.421445692178670651e-03,-8.997464412250783639e+00
-2.554232907097870372e-03,2.369020304688265396e-03,-8.997844827406556334e+00
-2.853165298655726406e-03,2.632882253251476665e-03,-8.997539808294289898e+00
-2.485024563687360851e-03,2.939027880440413590e-03,-8.997864301110784169e+00
-2.572584853341458849e-03,2.470649936976973549e-03,-8.997493319832848613e+00
-2.495856532094456893e-03,2.528429529287048658e-03,-8.997665708702166754e+00
-2.835366636942017547e-03,2.863789166363514809e-03,-8.997912336656220589e+00
-2.792511710443409956e-03,2.467389392287427756e-03,-8.997418135249100501e+00
-2.761779862803865043e-03,3.163108585424044290e-03,-8.997697586193199371e+00
-2.584791087210693873e-03,3.126513901584999835e-03,-8.997368452207821221e+00
-2.557995079212645531e-03,2.429328957644805598e-03,-8.998158470858404812e+00
-2.336940137464529367e-03,2.567438472055982857e-03,-8.997873405454303253e+00
-2.694184885698042761e-03,3.030205133442189815e-03,-8.998289492228488839e+00
-1.904308858640491129e-03,2.088951032380428549e-03,-8.997415174902682722e+00
-2.388202053688899106e-03,2.642816732277193398e-03,-8.997708429904099248e+00
-2.550393979605472018e-03,2.068602703727411528e-03,-8.997975175057474573e+00
-2.855866022445683640e-03,2.842814174896437542e-03,-8.997955137066714570e+00
-2.282507463905668246e-03,2.625678188624957013e-03,-8.997513971388173104e+00
-3.406252736741686125e-03,2.288591265426458132e-03,-8.997606816094739557e+00
-2.942894810885973537e-03,2.926585127015456089e-03,-8.998042096477931295e+00
-2.406441188734004168e-03,2.649739845061048395e-03,-8.998027512258234495e+00
-2.719379414449307406e-03,2.403746798075442545e-03,-8.997483614850004585e+00
-3.096531705701982985e-03,2.996976727043030100e-03,-8.997553466020185908e+00
-2.673346954354694285e-03,3.008849822598521056e-03,-8.997634175801200840e+00
-2.200465703229256050e-03,3.006451012629148857e-03,-8.997579925688716784e+00
-2.625978063174265464e-03,2.892975884620861693e-03,-8.998061461524367033e+00
-2.831520168437988514e-03,2.043938414343642214e-03,-8.997705597971908276e+00
-2.656433810011832927e-03,2.058375791805281373e-03,-8.997894511240097870e+00
-2.037464326880430825e-03,2.455503639651275462e-03,-8.996912881699849152e+00
-2.564896368106115137e-03,3.089518656298112509e-03,-8.996929050884984846e+00
-2.940743450117177908e-03,1.655684727877997390e-03,-8.997961730618637688e+00
-3.109270507946728865e-03,2.243223423965706211e-03,-8.998331377571535228e+00
-2.566595910852676344e-03,2.584684624810042099e-03,-8.998366185969702613e+00
-2.660317709713704622e-03,3.223942170422260979e-03,-8.997654292527032638e+00
-2.767524372563289186e-03,2.643258712607695834e-03,-8.997612425922540069e+00
-2.068844372665196683e-03,2.451266213622584587e-03,-8.998495510667588348e+00
-2.583579839985561486e-03,2.260348280610938263e-03,-8.997845197893367342e+00
-2.595086782690167373e-03,1.872437561598090097e-03,-8.997332786665293014e+00
-2.548636030674379660e-03,2.517754044566571005e-03,-8.998296228404706554e+00
-2.886188050453109607e-03,2.494627550319037865e-03,-8.997778041936619786e+00
-2.341057451685096998e-03,1.466503577147739183e-03,-8.997971433910269212e+00
-2.750172068103809864e-03,2.263831633949164000e-03,-8.997912486504223040e+00
-2.697846345667288901e-03,2.519335996041326825e-03,-8.997968964323707297e+00
-2.410754451825930164e-03,2.506297499922048415e-03,-8.997224414086273825e+00
-2.268796508744318815e-03,2.612091635044058984e-03,-8.998100376217649909e+00
-3.260385967356912648e-03,2.555844863629984625e-03,-8.998389049015864671e+00
-2.676026567065764323e-03,2.615408607750767736e-03,-8.997064967346727116e+00
-2.805454649217570956e-03,2.732259951193805048e-03,-8.997833903896708563e+00
-2.614740000642982141e-03,1.894121908041395894e-03,-8.997665489242416825e+00
-3.159185821566887122e-03,2.470979251373611046e-03,-8.998428991541498334e+00
-2.231099970190422201e-03,2.822827009933956844e-03,-8.997564690274103327e+00
-2.984187505062529683e-03,2.163853616969108919e-03,-8.998068674868914485e+00
-3.226120563703568488e-03,2.218306820373579149e-03,-8.998231138364161552e+00
-2.437810778390884624e-03,2.886779826423907513e-03,-8.997494597153563589e+00
-2.521380277855603258e-03,2.985641581330369942e-03,-8.998169916577964500e+00
-2.774107792620871329e-03,1.858309943752158716e-03,-8.997428060392893556e+00
-3.229724026380540337e-03,2.108941375420647288e-03,-8.997864680202093624e+00
-2.607856780509176364e-03,1.733709343064797001e-03,-8.997553344150105659e+00
-2.879454337459487912e-03,2.623087324301700152e-03,-8.997983393821330722e+00
-3.275962169880585612e-03,2.060769548765976726e-03,-8.997791682764361809e+00
-2.704548088606506442e-03,2.399689984323238792e-03,-8.997748451478296161e+00
-2.493942851426317765e-03,2.710354482817578774e-03,-8.997794176241502129e+00
-2.625346924068980813e-03,2.366093171303527021e-03,-8.997691349968958363e+00
-2.680406308295352549e-03,2.380021006146952698e-03,-8.997454591286622616e+00
-2.940709945321044218e-03,2.272706350317179116e-03,-8.997795521174404954e+00
-2.972019698463683381e-03,2.659641907264346464e-03,-8.997973134857348398e+00
-2.966948478645546009e-03,2.690833421327999079e-03,-8.997624274625380281e+00
-2.663061189422292509e-03,2.586387513880978890e-03,-8.997438771017021608e+00
-2.958973000096004526e-03,2.363846334394736470e-03,-8.997941214113762243e+00
-2.572708248016284099e-03,2.156036984758904693e-03,-8.998124574561874311e+00
-3.236526616372520284e-03,2.325204290640319957e-03,-8.997977505904378503e+00
